"success","trial_type","trial_index","time_elapsed","internal_node_id","rt","keypressed","url","trial_tag","value","tnum","string","color","fixdur","respdelay","feedbackdur","correct","congruent","startTime","displayTime","feedbackTime"
"true","fullscreen","0","2021","0.0-0.0","","","","","","","","","","","","","","","",""
"","external-html","1","20268","0.0-1.0-0.0","18184","-1","STROOP_html/welcome1.html","instructions","","","","","","","","","","","",""
"","external-html","2","27341","0.0-2.0-0.0","6986","-1","STROOP_html/welcome2.html","instructions","","","","","","","","","","","",""
"","call-function","3","27424","0.0-3.0","","","","","78.5","","","","","","","","","","",""
"","EPstroop","4","30160","0.0-4.0-0.0","-1","","","STROOPtrain","","0","0","0","797.5597649719828","1200","700","-1","1","27883.80000001192","28704","29913.40000000596"
"","EPstroop","5","32896","0.0-4.1-0.1","-1","","","STROOPtrain","","0","2","0","817.1579223092924","1200","700","-1","0","30621.30000001192","31443.30000001192","32650.60000000894"
"","EPstroop","6","35487","0.0-4.2-0.2","1043","","","STROOPtrain","","0","2","2","831.5876544893354","1200","700","1","1","33357.70000000298","34196","35241.5"
"","EPstroop","7","38122","0.0-4.3-0.3","-1","","","STROOPtrain","","0","1","2","711.325602597152","1200","700","-1","0","35948","36667.30000001192","37874.70000000298"
"","EPstroop","8","40592","0.0-4.4-0.4","988","","","STROOPtrain","","0","1","1","767.8600535545144","1200","700","1","1","38583.10000000894","39355.40000000596","40343.20000000298"
"","EPstroop","9","43512","0.0-4.5-0.5","-1","","","STROOPtrain","","0","2","1","1000.2151452838439","1200","700","-1","0","41051.70000000298","42058.70000000298","43267.5"
"","EPstroop","10","45937","0.0-4.6-0.6","804","","","STROOPtrain","","0","1","1","908.1581321471117","1200","700","1","1","43971.80000001192","44883.40000000596","45687.40000000596"
"","EPstroop","11","48608","0.0-4.7-0.7","-1","","","STROOPtrain","","0","1","0","753.9907171554073","1200","700","-1","0","46397.60000000894","47154.80000001192","48362.60000000894"
"","EPstroop","12","50840","0.0-4.8-0.8","587","","","STROOPtrain","","0","1","1","936.7210001142541","1200","700","1","1","49068.60000000894","50011","50598.30000001192"
"","EPstroop","13","53280","0.0-4.9-0.9","724","","","STROOPtrain","","0","0","2","999.789669143752","1200","700","1","0","51300.30000001192","52306.90000000596","53031.20000000298"
"","EPstroop","14","55696","0.0-4.10-0.10","621","","","STROOPtrain","","0","2","2","1082.7350550669955","1200","700","1","1","53740.70000000298","54826.80000001192","55447.70000000298"
"","EPstroop","15","57856","0.0-4.11-0.11","524","","","STROOPtrain","","0","2","2","924.9732860986101","1200","700","1","1","56156.10000000894","57083.60000000894","57607.40000000596"
"","EPstroop","16","60177","0.0-4.12-0.12","695","","","STROOPtrain","","0","0","1","910.3137011764557","1200","700","0","0","58315.80000001192","59231.40000000596","59926.60000000894"
"","EPstroop","17","62768","0.0-4.13-0.13","996","","","STROOPtrain","","0","0","0","885.3883981270658","1200","700","1","1","60637.10000000894","61523.10000000894","62519.5"
"","EPstroop","18","65248","0.0-4.14-0.14","1020","","","STROOPtrain","","0","0","0","749.401995471086","1200","700","0","1","63228.70000000298","63979","64998.70000000298"
"","EPstroop","19","67840","0.0-4.15-0.15","803","","","STROOPtrain","","0","0","0","1070.7988985752554","1200","700","1","1","65708.60000000894","66787.90000000596","67590.90000000596"
"","EPstroop","20","70338","0.0-4.16-0.16","852","","","STROOPtrain","","0","1","1","934.9299618123987","1200","700","1","1","68300.30000001192","69234.90000000596","70087.40000000596"
"","EPstroop","21","72752","0.0-4.17-0.17","748","","","STROOPtrain","","0","2","2","956.9843231563477","1200","700","1","1","70797.80000001192","71755.10000000894","72503.20000000298"
"","external-html","22","77036","0.0-5.0-0.0","4192","-1","STROOP_html/welcome3.html","instructions","","","","","","","","","","","",""
"","call-function","23","77104","0.0-6.0","","","","","62.099999994039536","","","","","","","","","","",""
"","call-function","24","77175","0.0-7.0","","","","","71.20000000298023","","","","","","","","","","",""
"","EPstroop","25","79920","0.0-8.0-0.0","-1","","","STROOPmain","","0","1","1","827.2029584814519","1200","700","-1","1","77635.5","78467.60000000894","79674.90000000596"
"","EPstroop","26","82849","0.0-8.1-0.1","-1","","","STROOPmain","","1","2","1","1013.9512177535823","1200","700","-1","0","80380.30000001192","81394.90000000596","82602.80000001192"
"","EPstroop","27","85376","0.0-8.2-0.2","787","","","STROOPmain","","2","2","2","1024.0098638173574","1200","700","1","1","83308.30000001192","84339.40000000596","85130"
"","EPstroop","28","88032","0.0-8.3-0.3","844","","","STROOPmain","","3","0","0","1099.786613960921","1200","700","1","1","85835.80000001192","86939.40000000596","87783.60000000894"
"","EPstroop","29","90768","0.0-8.4-0.4","1140","","","STROOPmain","","4","1","1","885.2437626676012","1200","700","1","1","88492.60000000894","89379","90519.70000000298"
"","EPstroop","30","93073","0.0-8.5-0.5","629","","","STROOPmain","","5","2","2","964.2344058136175","1200","700","1","1","91228.30000001192","92195.20000000298","92824.10000000894"
"","EPstroop","31","95137","0.0-8.6-0.6","636","","","STROOPmain","","6","2","2","710.2321075497417","1200","700","1","1","93533.60000000894","94251.30000001192","94887.60000000894"
"","EPstroop","32","97600","0.0-8.7-0.7","844","","","STROOPmain","","7","0","0","904.3402756266357","1200","700","1","1","95596.10000000894","96507.40000000596","97351.70000000298"
"","EPstroop","33","100112","0.0-8.8-0.8","899","","","STROOPmain","","8","0","0","897.3471153574169","1200","700","1","1","98060.10000000894","98963.10000000894","99862.60000000894"
"","EPstroop","34","102480","0.0-8.9-0.9","907","","","STROOPmain","","9","2","1","750.5373889247047","1200","700","1","0","100572","101323.40000000596","102230.60000000894"
"","EPstroop","35","105056","0.0-8.10-0.10","949","","","STROOPmain","","10","2","1","912.6111429237678","1200","700","1","0","102940.20000000298","103858.80000001192","104808"
"","EPstroop","36","107648","0.0-8.11-0.11","780","","","STROOPmain","","11","1","1","1099.8706980846541","1200","700","1","1","105516.30000001192","106619","107399.60000000894"
"","EPstroop","37","109697","0.0-8.12-0.12","571","","","STROOPmain","","12","1","1","764.5356831528957","1200","700","1","1","108108.10000000894","108875.60000000894","109447.40000000596"
"","EPstroop","38","111776","0.0-8.13-0.13","660","","","STROOPmain","","13","1","1","706.9823657750047","1200","700","1","1","110157.40000000596","110867.40000000596","111527.5"
"","EPstroop","39","114208","0.0-8.14-0.14","668","","","STROOPmain","","14","2","2","1051.4307882287712","1200","700","1","1","112235.20000000298","113291.20000000298","113959.5"
"","EPstroop","40","116544","0.0-8.15-0.15","884","","","STROOPmain","","15","2","0","738.9098637701684","1200","700","1","0","114668.10000000894","115411.5","116295.80000001192"
"","EPstroop","41","118992","0.0-8.16-0.16","780","","","STROOPmain","","16","0","1","954.5376470164024","1200","700","1","0","117003.80000001192","117962.90000000596","118743.40000000596"
"","EPstroop","42","121440","0.0-8.17-0.17","740","","","STROOPmain","","17","0","0","997.8554734272348","1200","700","1","1","119452","120451.40000000596","121191.60000000894"
"","EPstroop","43","123792","0.0-8.18-0.18","836","","","STROOPmain","","18","0","0","806.1633765159685","1200","700","1","1","121899.20000000298","122707.30000001192","123543.60000000894"
"","EPstroop","44","126112","0.0-8.19-0.19","611","","","STROOPmain","","19","2","2","997.3188129764102","1200","700","1","1","124252.20000000298","125251","125862.5"
"","EPstroop","45","128816","0.0-8.20-0.20","-1","","","STROOPmain","","20","0","2","783.8335012640443","1200","700","-1","0","126572.40000000596","127363.30000001192","128571.10000000894"
"","EPstroop","46","131072","0.0-8.21-0.21","796","","","STROOPmain","","21","0","2","748.5502043722702","1200","700","1","0","129276.20000000298","130026.90000000596","130823.60000000894"
"","EPstroop","47","133600","0.0-8.22-0.22","804","","","STROOPmain","","22","0","0","1009.0099780711747","1200","700","1","1","131532.40000000596","132547","133351.60000000894"
"","EPstroop","48","135712","0.0-8.23-0.23","520","","","STROOPmain","","23","1","1","869.4202763464851","1200","700","1","1","134060.30000001192","134942.40000000596","135462.70000000298"
"","EPstroop","49","138064","0.0-8.24-0.24","808","","","STROOPmain","","24","0","0","819.000239205558","1200","700","1","1","136172.30000001192","137007","137815.60000000894"
"","EPstroop","50","140432","0.0-8.25-0.25","627","","","STROOPmain","","25","2","2","1026.0358305506413","1200","700","1","1","138523.70000000298","139556.80000001192","140183.80000001192"
"","EPstroop","51","142960","0.0-8.26-0.26","1011","","","STROOPmain","","26","1","1","805.3384244293792","1200","700","1","1","140892","141699.5","142710.40000000596"
"","EPstroop","52","145392","0.0-8.27-0.27","724","","","STROOPmain","","27","1","1","992.6364020523293","1200","700","1","1","143420.40000000596","144419.60000000894","145143.40000000596"
"","EPstroop","53","147808","0.0-8.28-0.28","636","","","STROOPmain","","28","2","2","1070.7512895377986","1200","700","1","1","145852.20000000298","146922.80000001192","147559.5"
"","EPstroop","54","150000","0.0-8.29-0.29","676","","","STROOPmain","","29","0","0","800.6441634903507","1200","700","1","1","148268.40000000596","149075.10000000894","149751.30000001192"
"","EPstroop","55","152080","0.0-8.30-0.30","604","","","STROOPmain","","30","0","2","761.6260786300062","1200","700","1","0","150460.80000001192","151227.60000000894","151831.90000000596"
"","EPstroop","56","154481","0.0-8.31-0.31","604","","","STROOPmain","","31","0","2","1082.7513970293398","1200","700","1","0","152539.90000000596","153627.10000000894","154231.40000000596"
"","EPstroop","57","156977","0.0-8.32-0.32","883","","","STROOPmain","","32","0","1","898.9652001904249","1200","700","0","0","154941.40000000596","155843.5","156726.80000001192"
"","EPstroop","58","159457","0.0-8.33-0.33","852","","","STROOPmain","","33","1","0","912.9961497983677","1200","700","1","0","157437.70000000298","158355.30000001192","159207.40000000596"
"","EPstroop","59","161634","0.0-8.34-0.34","652","","","STROOPmain","","34","2","2","811.4373535548157","1200","700","1","1","159915.90000000596","160731.5","161383.5"
"","EPstroop","60","163745","0.0-8.35-0.35","635","","","STROOPmain","","35","2","2","764.1078900601519","1200","700","1","1","162093","162860","163495.70000000298"
"","EPstroop","61","166424","0.0-8.36-0.36","979","","","STROOPmain","","36","0","0","976.937621724051","1200","700","1","1","164204.10000000894","165187.20000000298","166166.60000000894"
"","EPstroop","62","168561","0.0-8.37-0.37","700","","","STROOPmain","","37","1","1","727.0738380797903","1200","700","1","1","166883.20000000298","167611.30000001192","168311.5"
"","EPstroop","63","170754","0.0-8.38-0.38","460","","","STROOPmain","","38","1","2","1018.6547479814359","1200","700","1","0","169019.70000000298","170043.5","170503.5"
"","EPstroop","64","173042","0.0-8.39-0.39","636","","","STROOPmain","","39","1","2","935.546793809187","1200","700","1","0","171212.60000000894","172154.90000000596","172791.5"
"","EPstroop","65","175218","0.0-8.40-0.40","604","","","STROOPmain","","40","2","2","861.1468900795237","1200","700","1","1","173500","174363.30000001192","174967.70000000298"
"","EPstroop","66","177169","0.0-8.41-0.41","460","","","STROOPmain","","41","2","2","776.9990803399586","1200","700","1","1","175676.60000000894","176459.60000000894","176919.60000000894"
"","EPstroop","67","179841","0.0-8.42-0.42","979","","","STROOPmain","","42","1","1","980.547089485637","1200","700","1","1","177627.5","178611.70000000298","179590.60000000894"
"","EPstroop","68","182146","0.0-8.43-0.43","731","","","STROOPmain","","43","1","0","855.149549525688","1200","700","1","0","180300.5","181163.20000000298","181894.60000000894"
"","EPstroop","69","184419","0.0-8.44-0.44","747","","","STROOPmain","","44","1","1","809.2007437986392","1200","700","1","1","182604.5","183419.70000000298","184167.20000000298"
"","EPstroop","70","186881","0.0-8.45-0.45","836","","","STROOPmain","","45","2","0","909.1280764895399","1200","700","1","0","184877.60000000894","185795.60000000894","186631.80000001192"
"","EPstroop","71","189521","0.0-8.46-0.46","1035","","","STROOPmain","","46","1","0","887.2610434746127","1200","700","1","0","187339.80000001192","188235.90000000596","189271.60000000894"
"","EPstroop","72","191858","0.0-8.47-0.47","732","","","STROOPmain","","47","0","0","894.6984556651335","1200","700","1","1","189979.20000000298","190875.60000000894","191607.5"
"","EPstroop","73","194242","0.0-8.48-0.48","684","","","STROOPmain","","48","0","0","985.6272096851645","1200","700","1","1","192316","193307.70000000298","193991.5"
"","EPstroop","74","196673","0.0-8.49-0.49","724","","","STROOPmain","","49","1","1","980.2431808880202","1200","700","1","1","194700.80000001192","195683.40000000596","196407.40000000596"
"","EPstroop","75","199105","0.0-8.50-0.50","884","","","STROOPmain","","50","2","0","836.2970506166953","1200","700","1","0","197131.80000001192","197971.5","198855.70000000298"
"","EPstroop","76","201586","0.0-8.51-0.51","988","","","STROOPmain","","51","1","1","780.0063057494635","1200","700","1","1","199563.70000000298","200347.30000001192","201335.5"
"","EPstroop","77","204097","0.0-8.52-0.52","956","","","STROOPmain","","52","0","1","844.6396933163824","1200","700","1","0","202044.90000000596","202891.5","203847.5"
"","EPstroop","78","206177","0.0-8.53-0.53","579","","","STROOPmain","","53","1","2","790.6202477133339","1200","700","1","0","204555.30000001192","205347.20000000298","205926.5"
"","EPstroop","79","208513","0.0-8.54-0.54","651","","","STROOPmain","","54","2","2","969.2269699887559","1200","700","1","1","206636.10000000894","207611.90000000596","208262.80000001192"
"","EPstroop","80","210866","0.0-8.55-0.55","884","","","STROOPmain","","55","2","0","755.6731086342002","1200","700","1","0","208972.20000000298","209731.70000000298","210615.70000000298"
"","EPstroop","81","213185","0.0-8.56-0.56","826","","","STROOPmain","","56","0","1","779.4613236953651","1200","700","1","0","211324.70000000298","212108.10000000894","212934.5"
"","EPstroop","82","215505","0.0-8.57-0.57","555","","","STROOPmain","","57","1","1","1049.6990588880726","1200","700","1","1","213644","214699.80000001192","215254.60000000894"
"","EPstroop","83","217714","0.0-8.58-0.58","740","","","STROOPmain","","58","0","0","756.327380444133","1200","700","1","1","215963.20000000298","216723.20000000298","217463.30000001192"
"","EPstroop","84","220129","0.0-8.59-0.59","892","","","STROOPmain","","59","1","2","807.8317043846386","1200","700","1","0","218173.10000000894","218987.60000000894","219879.40000000596"
"","EPstroop","85","222577","0.0-8.60-0.60","827","","","STROOPmain","","60","0","0","910.4514553676543","1200","700","1","1","220587.30000001192","221500.5","222327.90000000596"
"","EPstroop","86","224961","0.0-8.61-0.61","779","","","STROOPmain","","61","0","0","887.1666290757051","1200","700","1","1","223035.60000000894","223931.5","224710.5"
"","EPstroop","87","227322","0.0-8.62-0.62","572","","","STROOPmain","","62","0","0","1084.054280202099","1200","700","1","1","225419.20000000298","226507.70000000298","227079.40000000596"
"","EPstroop","88","229634","0.0-8.63-0.63","797","","","STROOPmain","","63","2","2","805.8068636260539","1200","700","1","1","227781.30000001192","228586.60000000894","229383.5"
"","EPstroop","89","232065","0.0-8.64-0.64","700","","","STROOPmain","","64","2","2","1019.4705713615017","1200","700","1","1","230091.90000000596","231115.40000000596","231815.40000000596"
"","EPstroop","90","234450","0.0-8.65-0.65","803","","","STROOPmain","","65","1","0","867.8081938331997","1200","700","1","0","232523.80000001192","233395","234198.5"
"","EPstroop","91","236705","0.0-8.66-0.66","548","","","STROOPmain","","66","0","0","994.2880681335868","1200","700","1","1","234908","235907.30000001192","236455.40000000596"
"","EPstroop","92","239009","0.0-8.67-0.67","764","","","STROOPmain","","67","1","1","824.7268007943134","1200","700","1","1","237164","237994.90000000596","238759.40000000596"
"","EPstroop","93","241809","0.0-8.68-0.68","1147","","","STROOPmain","","68","2","2","941.4090352213634","1200","700","1","1","239468","240411.60000000894","241558.60000000894"
"","EPstroop","94","244458","0.0-8.69-0.69","-1","","","STROOPmain","","69","2","1","723.7709452205389","1200","700","-1","0","242267.70000000298","243008.20000000298","244211"
"","EPstroop","95","246850","0.0-8.70-0.70","587","","","STROOPmain","","70","1","1","1086.9765941261944","1200","700","1","1","244916.40000000596","246011.90000000596","246598.70000000298"
"","EPstroop","96","248993","0.0-8.71-0.71","668","","","STROOPmain","","71","2","2","764.7050771786912","1200","700","1","1","247308.5","248075.10000000894","248743.40000000596"
"true","fullscreen","97","250001","0.0-9.0","","","","","","","","","","","","","","","",""
"","external-html","98","263965","0.0-10.0","13714","","./STROOP_html/endscreen.html","endscreen","","","","","","","","","","","",""
