"success","trial_type","trial_index","time_elapsed","internal_node_id","rt","keypressed","url","trial_tag","value","tnum","string","color","fixdur","respdelay","feedbackdur","correct","congruent","startTime","displayTime","feedbackTime"
"true","fullscreen","0","6490","0.0-0.0","","","","","","","","","","","","","","","",""
"","external-html","1","17456","0.0-1.0-0.0","10909","-1","STROOP_html/welcome1.html","instructions","","","","","","","","","","","",""
"","external-html","2","25839","0.0-2.0-0.0","8313","-1","STROOP_html/welcome2.html","instructions","","","","","","","","","","","",""
"","call-function","3","25931","0.0-3.0","","","","","89.29999999981374","","","","","","","","","","",""
"","EPstroop","4","28980","0.0-4.0-0.0","-1","","","STROOPtrain","","0","2","2","1098.0312055289905","1200","700","-1","1","26517.099999999627","27625.599999999627","28845.299999999814"
"","EPstroop","5","31646","0.0-4.1-0.1","1112","","","STROOPtrain","","0","1","1","836.3351626742004","1200","700","1","1","29567.200000000186","30415.299999999814","31527.39999999944"
"","EPstroop","6","34430","0.0-4.2-0.2","1199","","","STROOPtrain","","0","2","0","876.452534100027","1200","700","1","0","32233","33111.200000000186","34310.299999999814"
"","EPstroop","7","36590","0.0-4.3-0.3","695","","","STROOPtrain","","0","1","1","753.9033423783887","1200","700","1","1","35015.89999999944","35775.5","36470.700000000186"
"","EPstroop","8","39358","0.0-4.4-0.4","1063","","","STROOPtrain","","0","1","0","996.9815694749773","1200","700","1","0","37176.59999999963","38175.299999999814","39238.700000000186"
"","EPstroop","9","41822","0.0-4.5-0.5","920","","","STROOPtrain","","0","0","0","833.9876550585936","1200","700","1","1","39944.5","40782.700000000186","41703.09999999963"
"","EPstroop","10","44333","0.0-4.6-0.6","735","","","STROOPtrain","","0","0","1","1063.6787420259955","1200","700","1","0","42408.59999999963","43479.39999999944","44214"
"","EPstroop","11","46494","0.0-4.7-0.7","688","","","STROOPtrain","","0","0","0","762.6023570200744","1200","700","1","1","44920.09999999963","45687.200000000186","46374.799999999814"
"","EPstroop","12","48510","0.0-4.8-0.8","519","","","STROOPtrain","","0","0","0","786.7726786711974","1200","700","1","1","47081.200000000186","47871","48389.700000000186"
"","EPstroop","13","50830","0.0-4.9-0.9","815","","","STROOPtrain","","0","0","2","797.7670254260182","1200","700","1","0","49097","49895.200000000186","50710.799999999814"
"","EPstroop","14","53758","0.0-4.10-0.10","-1","","","STROOPtrain","","0","0","0","1010.4603200533537","1200","700","-1","1","51416.200000000186","52431.5","53639.09999999963"
"","EPstroop","15","55966","0.0-4.11-0.11","695","","","STROOPtrain","","0","2","1","801.7017709479504","1200","700","0","0","54343.59999999963","55150.700000000186","55846"
"","EPstroop","16","58886","0.0-4.12-0.12","-1","","","STROOPtrain","","0","2","2","1005.8696397397784","1200","700","-1","1","56552","57559.09999999963","58767.200000000186"
"","EPstroop","17","61086","0.0-4.13-0.13","551","","","STROOPtrain","","0","1","2","936.1287157578162","1200","700","0","0","59472.200000000186","60415.09999999963","60966.5"
"","EPstroop","18","63646","0.0-4.14-0.14","832","","","STROOPtrain","","0","2","2","1017.0747574792354","1200","700","1","1","61672.299999999814","62694.5","63526.200000000186"
"","EPstroop","19","66014","0.0-4.15-0.15","592","","","STROOPtrain","","0","2","2","1065.1704647167057","1200","700","1","1","64231.89999999944","65303.09999999963","65895.29999999981"
"","EPstroop","20","68429","0.0-4.16-0.16","871","","","STROOPtrain","","0","1","1","833.9476806824142","1200","700","1","1","66600.39999999944","67439.59999999963","68310.70000000019"
"","EPstroop","21","70718","0.0-4.17-0.17","599","","","STROOPtrain","","0","1","1","978.1381633234944","1200","700","1","1","69015.59999999963","69999.39999999944","70598.5"
"","external-html","22","74285","0.0-5.0-0.0","3480","-1","STROOP_html/welcome3.html","instructions","","","","","","","","","","","",""
"","call-function","23","74337","0.0-6.0","","","","","46.799999999813735","","","","","","","","","","",""
"","call-function","24","74390","0.0-7.0","","","","","52.90000000037253","","","","","","","","","","",""
"","EPstroop","25","76806","0.0-8.0-0.0","744","","","STROOPmain","","0","2","2","957.9376821749222","1200","700","1","1","74977","75934.79999999981","76685"
"","EPstroop","26","79070","0.0-8.1-0.1","528","","","STROOPmain","","1","2","2","1024.869339351581","1200","700","1","1","77392.89999999944","78422.89999999944","78951.09999999963"
"","EPstroop","27","81630","0.0-8.2-0.2","896","","","STROOPmain","","2","1","1","956.1447041230165","1200","700","1","1","79656.29999999981","80614.79999999981","81511.09999999963"
"","EPstroop","28","83630","0.0-8.3-0.3","582","","","STROOPmain","","3","1","1","706.926794427991","1200","700","1","1","82216.70000000019","82927.29999999981","83509.79999999981"
"","EPstroop","29","85870","0.0-8.4-0.4","752","","","STROOPmain","","4","2","0","774.5380655312134","1200","700","1","0","84216.70000000019","84998.79999999981","85751"
"","EPstroop","30","88030","0.0-8.5-0.5","631","","","STROOPmain","","5","2","1","819.5909215744022","1200","700","1","0","86456.39999999944","87279.20000000019","87910.29999999981"
"","EPstroop","31","90430","0.0-8.6-0.6","599","","","STROOPmain","","6","2","1","1094.1296873640208","1200","700","1","0","88615.39999999944","89711.39999999944","90311"
"","EPstroop","32","92750","0.0-8.7-0.7","750","","","STROOPmain","","7","2","0","857.5255312777251","1200","700","1","0","91016.59999999963","91879.29999999981","92629.79999999981"
"","EPstroop","33","94926","0.0-8.8-0.8","415","","","STROOPmain","","8","1","1","1052.1614301110335","1200","700","1","1","93336.5","94391.59999999963","94807.09999999963"
"","EPstroop","34","97086","0.0-8.9-0.9","716","","","STROOPmain","","9","0","0","731.4239773303387","1200","700","1","1","95512.29999999981","96251","96967"
"","EPstroop","35","99117","0.0-8.10-0.10","472","","","STROOPmain","","10","0","1","848.0341754411263","1200","700","1","0","97672.20000000019","98526.89999999944","98999.09999999963"
"","EPstroop","36","101309","0.0-8.11-0.11","662","","","STROOPmain","","11","0","2","822.6384648793817","1200","700","1","0","99703.70000000019","100528.39999999944","101190"
"","EPstroop","37","103774","0.0-8.12-0.12","711","","","STROOPmain","","12","1","1","1047.21197168674","1200","700","1","1","101895.20000000019","102944","103655"
"","EPstroop","38","105743","0.0-8.13-0.13","528","","","STROOPmain","","13","0","1","728.3932928706192","1200","700","1","0","104360.29999999981","105094.70000000019","105622.89999999944"
"","EPstroop","39","107998","0.0-8.14-0.14","568","","","STROOPmain","","14","0","0","978.1700846009824","1200","700","1","1","106329.39999999944","107310.59999999963","107878.79999999981"
"","EPstroop","40","110094","0.0-8.15-0.15","543","","","STROOPmain","","15","0","0","841.8091287711098","1200","700","1","1","108583.89999999944","109432.20000000019","109975.20000000019"
"","EPstroop","41","112334","0.0-8.16-0.16","480","","","STROOPmain","","16","0","0","1048.9489182064888","1200","700","1","1","110680.5","111735.09999999963","112215"
"","EPstroop","42","114780","0.0-8.17-0.17","744","","","STROOPmain","","17","1","2","998.4768499794741","1200","700","1","0","112920.20000000019","113918.79999999981","114662.79999999981"
"","EPstroop","43","117197","0.0-8.18-0.18","743","","","STROOPmain","","18","2","2","964.6905796976612","1200","700","1","1","115367.79999999981","116335.09999999963","117078.70000000019"
"","EPstroop","44","119229","0.0-8.19-0.19","527","","","STROOPmain","","19","0","0","792.2577723491859","1200","700","1","1","117784.20000000019","118583.09999999963","119110.89999999944"
"","EPstroop","45","121112","0.0-8.20-0.20","448","","","STROOPmain","","20","2","1","716.647349475172","1200","700","1","0","119815.59999999963","120535.29999999981","120983"
"","EPstroop","46","123613","0.0-8.21-0.21","983","","","STROOPmain","","21","1","2","810.3032334155134","1200","700","1","0","121699.20000000019","122511.79999999981","123494.79999999981"
"","EPstroop","47","126221","0.0-8.22-0.22","912","","","STROOPmain","","22","0","1","990.5646305135901","1200","700","0","0","124200","125190.70000000019","126102.59999999963"
"","EPstroop","48","128606","0.0-8.23-0.23","687","","","STROOPmain","","23","0","2","986.2423554757755","1200","700","1","0","126808","127799.29999999981","128486.89999999944"
"","EPstroop","49","131085","0.0-8.24-0.24","1016","","","STROOPmain","","24","1","0","757.1347792335256","1200","700","1","0","129192.89999999944","129951","130967"
"","EPstroop","50","133355","0.0-8.25-0.25","448","","","STROOPmain","","25","1","1","1094.6216313514121","1200","700","1","1","131672.59999999963","132775.39999999944","133223.2000000002"
"","EPstroop","51","136173","0.0-8.26-0.26","1048","","","STROOPmain","","26","2","0","1060.3895304203797","1200","700","0","0","133942.5","135006.89999999944","136054.7000000002"
"","EPstroop","52","138413","0.0-8.27-0.27","810","","","STROOPmain","","27","2","1","712.2234400320272","1200","700","1","0","136760.2000000002","137484.7999999998","138294.89999999944"
"","EPstroop","53","140669","0.0-8.28-0.28","640","","","STROOPmain","","28","0","0","907.2141360324571","1200","700","1","1","139000.2000000002","139910.7999999998","140550.89999999944"
"","EPstroop","54","142829","0.0-8.29-0.29","640","","","STROOPmain","","29","1","2","807.9246890479424","1200","700","1","0","141256.59999999963","142070.7999999998","142711.2999999998"
"","EPstroop","55","145181","0.0-8.30-0.30","824","","","STROOPmain","","30","2","0","820.5854201014532","1200","700","1","0","143416.2999999998","144239.2999999998","145063.09999999963"
"","EPstroop","56","147277","0.0-8.31-0.31","600","","","STROOPmain","","31","1","0","787.2361302216373","1200","700","1","0","145767.59999999963","146558.7999999998","147158.7000000002"
"","EPstroop","57","149821","0.0-8.32-0.32","768","","","STROOPmain","","32","1","1","1065.5885016562343","1200","700","1","1","147864.39999999944","148934.7000000002","149703"
"","EPstroop","58","152268","0.0-8.33-0.33","735","","","STROOPmain","","33","0","2","1004.2323642612254","1200","700","1","0","150408.5","151415.39999999944","152150.89999999944"
"","EPstroop","59","154349","0.0-8.34-0.34","583","","","STROOPmain","","34","1","2","785.4063566596002","1200","700","1","0","152855.2999999998","153647.59999999963","154230.89999999944"
"","EPstroop","60","156509","0.0-8.35-0.35","704","","","STROOPmain","","35","1","1","745.052857842972","1200","700","1","1","154935.39999999944","155687.2000000002","156391.2000000002"
"","EPstroop","61","158861","0.0-8.36-0.36","599","","","STROOPmain","","36","2","2","1043.1373569925347","1200","700","1","1","157096","158143.2999999998","158742"
"","EPstroop","62","161357","0.0-8.37-0.37","728","","","STROOPmain","","37","1","1","1061.3513052560106","1200","700","1","1","159448.7999999998","160510.7999999998","161238.7999999998"
"","EPstroop","63","163597","0.0-8.38-0.38","559","","","STROOPmain","","38","0","0","972.0659529375689","1200","700","1","1","161943.5","162919.2000000002","163478.5"
"","EPstroop","64","165949","0.0-8.39-0.39","639","","","STROOPmain","","39","2","2","992.8966973272054","1200","700","1","1","164184.2000000002","165191.5","165830.5"
"","EPstroop","65","168605","0.0-8.40-0.40","-1","","","STROOPmain","","40","0","0","741.875985200398","1200","700","-1","1","166536.2000000002","167279.2999999998","168486.59999999963"
"","EPstroop","66","170685","0.0-8.41-0.41","544","","","STROOPmain","","41","1","1","819.7072470824507","1200","700","1","1","169192.2999999998","170022.2999999998","170566.7999999998"
"","EPstroop","67","173100","0.0-8.42-0.42","631","","","STROOPmain","","42","0","0","1073.9451276161262","1200","700","1","1","171271.7999999998","172351.5","172982.7000000002"
"","EPstroop","68","175475","0.0-8.43-0.43","711","","","STROOPmain","","43","2","2","944.8804496719079","1200","700","1","1","173687","174639","175350"
"","EPstroop","69","177933","0.0-8.44-0.44","697","","","STROOPmain","","44","0","0","1054.3247016486362","1200","700","1","1","176061","177119.39999999944","177816.5"
"","EPstroop","70","180270","0.0-8.45-0.45","720","","","STROOPmain","","45","2","2","903.7198059471552","1200","700","1","1","178520.09999999963","179430.7999999998","180151.2000000002"
"","EPstroop","71","182285","0.0-8.46-0.46","543","","","STROOPmain","","46","1","1","761.3607063661053","1200","700","1","1","180856.2999999998","181623.09999999963","182166.7000000002"
"","EPstroop","72","184557","0.0-8.47-0.47","672","","","STROOPmain","","47","2","2","892.2777589721543","1200","700","1","1","182872.09999999963","183766.7999999998","184438.59999999963"
"","EPstroop","73","186654","0.0-8.48-0.48","519","","","STROOPmain","","48","1","1","865.4834370387089","1200","700","1","1","185144.2000000002","186015.2000000002","186534.89999999944"
"","EPstroop","74","188957","0.0-8.49-0.49","495","","","STROOPmain","","49","1","1","1099.2170776427638","1200","700","1","1","187240.2999999998","188343","188838"
"","EPstroop","75","191166","0.0-8.50-0.50","432","","","STROOPmain","","50","1","1","1070.261835004607","1200","700","1","1","189543.7999999998","190615.39999999944","191047.2000000002"
"","EPstroop","76","193502","0.0-8.51-0.51","568","","","STROOPmain","","51","2","2","1061.974952394653","1200","700","1","1","191752.5","192815.2999999998","193383.2000000002"
"","EPstroop","77","195613","0.0-8.52-0.52","655","","","STROOPmain","","52","0","0","745.6765693422558","1200","700","1","1","194088.2999999998","194839.2000000002","195494.7999999998"
"","EPstroop","78","197917","0.0-8.53-0.53","784","","","STROOPmain","","53","2","2","813.6758659635402","1200","700","1","1","196199.2000000002","197014.59999999963","197799"
"","EPstroop","79","200222","0.0-8.54-0.54","623","","","STROOPmain","","54","1","0","970.774744579513","1200","700","1","0","198503.7000000002","199479.2000000002","200102.89999999944"
"","EPstroop","80","202606","0.0-8.55-0.55","624","","","STROOPmain","","55","1","1","1049.0162482177652","1200","700","1","1","200808.5","201862.7000000002","202487.09999999963"
"","EPstroop","81","204557","0.0-8.56-0.56","512","","","STROOPmain","","56","0","0","730.0005140060207","1200","700","1","1","203191.7999999998","203927","204438.7000000002"
"","EPstroop","82","206653","0.0-8.57-0.57","479","","","STROOPmain","","57","0","0","904.1095880418086","1200","700","1","1","205143.59999999963","206055.5","206534.7999999998"
"","EPstroop","83","208733","0.0-8.58-0.58","583","","","STROOPmain","","58","2","2","787.6412230583466","1200","700","1","1","207239","208031.5","208614.89999999944"
"","EPstroop","84","210813","0.0-8.59-0.59","552","","","STROOPmain","","59","0","0","820.1718312447083","1200","700","1","1","209319.2000000002","210142.5","210695"
"","EPstroop","85","213069","0.0-8.60-0.60","840","","","STROOPmain","","60","0","2","708.9397164580197","1200","700","0","0","211400","212110.89999999944","212950.7999999998"
"","EPstroop","86","215277","0.0-8.61-0.61","703","","","STROOPmain","","61","2","2","793.0915092615727","1200","700","1","1","213656.09999999963","214455.89999999944","215158.7999999998"
"","EPstroop","87","217269","0.0-8.62-0.62","496","","","STROOPmain","","62","0","0","775.9294537280908","1200","700","1","1","215864.2999999998","216647","217142.7999999998"
"","EPstroop","88","219309","0.0-8.63-0.63","511","","","STROOPmain","","63","0","1","822.2825179448306","1200","700","1","0","217855.5","218679.2999999998","219190.89999999944"
"","EPstroop","89","221549","0.0-8.64-0.64","592","","","STROOPmain","","64","1","1","937.5877810327953","1200","700","1","1","219896.09999999963","220838.7999999998","221431.09999999963"
"","EPstroop","90","224030","0.0-8.65-0.65","696","","","STROOPmain","","65","2","2","1070.7738032618015","1200","700","1","1","222136.39999999944","223214.7999999998","223911.2000000002"
"","EPstroop","91","226269","0.0-8.66-0.66","462","","","STROOPmain","","66","2","2","1068.0053052959524","1200","700","1","1","224615.7000000002","225688.2999999998","226150.7999999998"
"","EPstroop","92","228334","0.0-8.67-0.67","632","","","STROOPmain","","67","2","2","703.1858453116515","1200","700","1","1","226856.2000000002","227582.59999999963","228214.89999999944"
"","EPstroop","93","230510","0.0-8.68-0.68","455","","","STROOPmain","","68","0","0","1010.6770126797633","1200","700","1","1","228919.7000000002","229935.59999999963","230390.89999999944"
"","EPstroop","94","232558","0.0-8.69-0.69","584","","","STROOPmain","","69","1","0","751.8467377771963","1200","700","1","0","231096.59999999963","231854.7999999998","232438.7000000002"
"","EPstroop","95","234878","0.0-8.70-0.70","551","","","STROOPmain","","70","1","1","1056.327820563048","1200","700","1","1","233144.39999999944","234207.2000000002","234757.89999999944"
"","EPstroop","96","236910","0.0-8.71-0.71","553","","","STROOPmain","","71","2","2","761.517996059526","1200","700","1","1","235463.89999999944","236237.7000000002","236790.89999999944"
"true","fullscreen","97","237917","0.0-9.0","","","","","","","","","","","","","","","",""
"","external-html","98","241452","0.0-10.0","3300","","./STROOP_html/endscreen.html","endscreen","","","","","","","","","","","",""
