"success","trial_type","trial_index","time_elapsed","internal_node_id","rt","keypressed","url","trial_tag","value","tnum","string","color","fixdur","respdelay","feedbackdur","correct","congruent","startTime","displayTime","feedbackTime"
"true","fullscreen","0","9396","0.0-0.0","","","","","","","","","","","","","","","",""
"","external-html","1","38221","0.0-1.0-0.0","28738","-1","STROOP_html/welcome1.html","instructions","","","","","","","","","","","",""
"","external-html","2","46141","0.0-2.0-0.0","7824","-1","STROOP_html/welcome2.html","instructions","","","","","","","","","","","",""
"","call-function","3","46220","0.0-3.0","","","","","74.80000001192093","","","","","","","","","","",""
"","EPstroop","4","48634","0.0-4.0-0.0","736","","","STROOPtrain","","0","1","1","972.620159380365","1200","700","1","1","46647.80000001192","47622.70000001788","48359.59999999404"
"","EPstroop","5","50940","0.0-4.1-0.1","776","","","STROOPtrain","","0","2","2","818.1695968668832","1200","700","1","1","49064.20000001788","49886.70000001788","50662.30000001192"
"","EPstroop","6","53659","0.0-4.2-0.2","-1","","","STROOPtrain","","0","0","2","802.6967831678907","1200","700","-1","0","51368.70000001788","52174","53382.5"
"","EPstroop","7","56458","0.0-4.3-0.3","-1","","","STROOPtrain","","0","2","1","880.0287949261942","1200","700","-1","0","54087.40000000596","54974.70000001788","56182.09999999404"
"","EPstroop","8","59035","0.0-4.4-0.4","1041","","","STROOPtrain","","0","0","0","829.5679748773583","1200","700","1","1","56886.70000001788","57718.20000001788","58759.20000001788"
"","EPstroop","9","61770","0.0-4.5-0.5","1016","","","STROOPtrain","","0","1","0","1010.8974887311916","1200","700","1","0","59463.90000000596","60478.80000001192","61495.30000001192"
"","EPstroop","10","64314","0.0-4.6-0.6","1056","","","STROOPtrain","","0","1","1","779.4806791086003","1200","700","1","1","62198.70000001788","62982.40000000596","64038.20000001788"
"","EPstroop","11","66554","0.0-4.7-0.7","713","","","STROOPtrain","","0","0","0","821.3661062615129","1200","700","1","1","64743.40000000596","65566.09999999404","66279"
"","EPstroop","12","68747","0.0-4.8-0.8","725","","","STROOPtrain","","0","0","0","749.0832984647208","1200","700","1","1","66982.90000000596","67746.40000000596","68471.09999999404"
"","EPstroop","13","70922","0.0-4.9-0.9","666","","","STROOPtrain","","0","0","0","801.0089431658087","1200","700","1","1","69175.5","69981.5","70647.20000001788"
"","EPstroop","14","73436","0.0-4.10-0.10","817","","","STROOPtrain","","0","2","2","985.6203036387591","1200","700","1","1","71351.30000001192","72341.80000001192","73159.30000001192"
"","EPstroop","15","75532","0.0-4.11-0.11","647","","","STROOPtrain","","0","2","2","738.785359027421","1200","700","1","1","73863","74607.5","75254.30000001192"
"","EPstroop","16","77964","0.0-4.12-0.12","849","","","STROOPtrain","","0","0","1","871.80236650956","1200","700","0","0","75959.59999999404","76838.5","77687.09999999404"
"","EPstroop","17","80612","0.0-4.13-0.13","-1","","","STROOPtrain","","0","2","0","720.4984888847665","1200","700","-1","0","78391.70000001788","79127.40000000596","80333.70000001788"
"","EPstroop","18","83212","0.0-4.14-0.14","1177","","","STROOPtrain","","0","2","2","712.4011231627202","1200","700","1","1","81039.20000001788","81758.09999999404","82935.09999999404"
"","EPstroop","19","85468","0.0-4.15-0.15","657","","","STROOPtrain","","0","1","1","887.6558517864214","1200","700","1","1","83639.20000001788","84533.90000000596","85191.30000001192"
"","EPstroop","20","88204","0.0-4.16-0.16","935","","","STROOPtrain","","0","1","2","1094.3747765502133","1200","700","0","0","85894.5","86990.80000001192","87926.20000001788"
"","EPstroop","21","90556","0.0-4.17-0.17","808","","","STROOPtrain","","0","1","1","832.7345759700058","1200","700","0","1","88631.80000001192","89470.90000000596","90278.90000000596"
"","external-html","22","96909","0.0-5.0-0.0","6279","-1","STROOP_html/welcome3.html","instructions","","","","","","","","","","","",""
"","call-function","23","96965","0.0-6.0","","","","","50","","","","","","","","","","",""
"","call-function","24","97029","0.0-7.0","","","","","63.599999994039536","","","","","","","","","","",""
"","EPstroop","25","99292","0.0-8.0-0.0","808","","","STROOPmain","","0","0","2","738.5002464454931","1200","700","0","0","97460.20000001788","98207.40000000596","99014.90000000596"
"","EPstroop","26","101428","0.0-8.1-0.1","665","","","STROOPmain","","1","1","1","757.6905445639347","1200","700","1","1","99719.5","100478.30000001192","101148.5"
"","EPstroop","27","104124","0.0-8.2-0.2","1048","","","STROOPmain","","2","1","2","936.2760386375521","1200","700","1","0","101855.20000001788","102798.80000001192","103847.30000001192"
"","EPstroop","28","106863","0.0-8.3-0.3","1176","","","STROOPmain","","3","2","1","851.3817703768209","1200","700","0","0","104551.09999999404","105407.20000001788","106583"
"","EPstroop","29","109212","0.0-8.4-0.4","697","","","STROOPmain","","4","2","1","945.9405620957392","1200","700","1","0","107290.5","108237.80000001192","108935.59999999404"
"","EPstroop","30","111756","0.0-8.5-0.5","929","","","STROOPmain","","5","2","2","904.0070293620187","1200","700","1","1","109639","110550.30000001192","111479.20000001788"
"","EPstroop","31","114076","0.0-8.6-0.6","687","","","STROOPmain","","6","0","0","918.7848843545817","1200","700","1","1","112183.5","113110.59999999404","113798.20000001788"
"","EPstroop","32","116956","0.0-8.7-0.7","1097","","","STROOPmain","","7","0","1","1077.7301309939483","1200","700","1","0","114503.09999999404","115582.09999999404","116679.20000001788"
"","EPstroop","33","119421","0.0-8.8-0.8","897","","","STROOPmain","","8","1","1","858.2809494735671","1200","700","1","1","117382.59999999404","118246.30000001192","119143.5"
"","EPstroop","34","121628","0.0-8.9-0.9","793","","","STROOPmain","","9","0","0","704.3185990655061","1200","700","1","1","119848.40000000596","120558.09999999404","121351.30000001192"
"","EPstroop","35","124204","0.0-8.10-0.10","792","","","STROOPmain","","10","1","0","1070.8478709397575","1200","700","0","0","122055.70000001788","123134.20000001788","123926.70000001788"
"","EPstroop","36","126812","0.0-8.11-0.11","888","","","STROOPmain","","11","1","1","1013.7849880897406","1200","700","1","1","124631.40000000596","125647.09999999404","126535.30000001192"
"","EPstroop","37","129052","0.0-8.12-0.12","777","","","STROOPmain","","12","0","0","756.0644638526118","1200","700","1","1","127239","127998.09999999404","128775.20000001788"
"","EPstroop","38","131676","0.0-8.13-0.13","888","","","STROOPmain","","13","0","0","1029.9396619391462","1200","700","1","1","129479.59999999404","130510.09999999404","131398.70000001788"
"","EPstroop","39","133997","0.0-8.14-0.14","737","","","STROOPmain","","14","2","2","871.8907175193665","1200","700","1","1","132103.59999999404","132981.80000001192","133719.20000001788"
"","EPstroop","40","136253","0.0-8.15-0.15","728","","","STROOPmain","","15","1","1","818.2154160953023","1200","700","1","1","134423.20000001788","135247.20000001788","135975.09999999404"
"","EPstroop","41","138797","0.0-8.16-0.16","809","","","STROOPmain","","16","0","0","1023.0649432924956","1200","700","1","1","136679.59999999404","137710.30000001192","138519.09999999404"
"","EPstroop","42","141485","0.0-8.17-0.17","953","","","STROOPmain","","17","1","0","1025.1939455899221","1200","700","0","0","139223.20000001788","140253.70000001788","141207"
"","EPstroop","43","143789","0.0-8.18-0.18","761","","","STROOPmain","","18","0","0","837.8938806459378","1200","700","1","1","141911.59999999404","142750.30000001192","143511.5"
"","EPstroop","44","146236","0.0-8.19-0.19","944","","","STROOPmain","","19","2","2","796.2697289180883","1200","700","1","1","144215.70000001788","145014.70000001788","145959"
"","EPstroop","45","148429","0.0-8.20-0.20","705","","","STROOPmain","","20","1","1","777.1305964515811","1200","700","1","1","146662.90000000596","147445.90000000596","148151"
"","EPstroop","46","151260","0.0-8.21-0.21","1056","","","STROOPmain","","21","2","0","1064.1024063859986","1200","700","0","0","148856","149927.09999999404","150983"
"","EPstroop","47","153772","0.0-8.22-0.22","825","","","STROOPmain","","22","2","2","979.2524060025264","1200","700","1","1","151687.09999999404","152670.40000000596","153495.09999999404"
"","EPstroop","48","156381","0.0-8.23-0.23","1144","","","STROOPmain","","23","0","1","751.6004314123281","1200","700","1","0","154199","154958.59999999404","156103.09999999404"
"","EPstroop","49","159101","0.0-8.24-0.24","1057","","","STROOPmain","","24","2","2","958.5500342350304","1200","700","1","1","156807.30000001192","157766","158823.20000001788"
"","EPstroop","50","161837","0.0-8.25-0.25","1033","","","STROOPmain","","25","1","2","992.1821710664601","1200","700","1","0","159527.20000001788","160526.09999999404","161559"
"","EPstroop","51","164317","0.0-8.26-0.26","704","","","STROOPmain","","26","2","2","1068.4066750576849","1200","700","1","1","162263.20000001788","163333.80000001192","164037.90000000596"
"","EPstroop","52","166813","0.0-8.27-0.27","1033","","","STROOPmain","","27","1","1","750.4259320889099","1200","700","1","1","164743.70000001788","165502.09999999404","166535.40000000596"
"","EPstroop","53","169485","0.0-8.28-0.28","999","","","STROOPmain","","28","2","0","965.816563668659","1200","700","0","0","167239.40000000596","168207.5","169206"
"","EPstroop","54","171981","0.0-8.29-0.29","1031","","","STROOPmain","","29","0","0","743.3472905110932","1200","700","1","1","169911.70000001788","170671.30000001192","171703.20000001788"
"","EPstroop","55","174428","0.0-8.30-0.30","769","","","STROOPmain","","30","2","2","966.268353868756","1200","700","1","1","172407.70000001788","173382","174151"
"","EPstroop","56","177405","0.0-8.31-0.31","1193","","","STROOPmain","","31","0","0","1077.04201947901","1200","700","1","1","174855.20000001788","175934.40000000596","177127.5"
"","EPstroop","57","180045","0.0-8.32-0.32","897","","","STROOPmain","","32","2","2","1034.9407936412888","1200","700","1","1","177831.70000001788","178869.90000000596","179767"
"","EPstroop","58","182700","0.0-8.33-0.33","1135","","","STROOPmain","","33","1","1","811.7945851047718","1200","700","1","1","180470.80000001192","181286.70000001788","182422"
"","EPstroop","59","185309","0.0-8.34-0.34","825","","","STROOPmain","","34","0","0","1078.7164873796423","1200","700","0","1","183126.80000001192","184206","185030.70000001788"
"","EPstroop","60","188045","0.0-8.35-0.35","-1","","","STROOPmain","","35","2","1","817.3222539908613","1200","700","-1","0","185735.40000000596","186558.09999999404","187767.30000001192"
"","EPstroop","61","190205","0.0-8.36-0.36","640","","","STROOPmain","","36","0","0","808.4179870941296","1200","700","1","1","188471.5","189287.30000001192","189927.40000000596"
"","EPstroop","62","193133","0.0-8.37-0.37","-1","","","STROOPmain","","37","1","0","1014.8136986522918","1200","700","-1","0","190630.80000001192","191646.09999999404","192854.09999999404"
"","EPstroop","63","195824","0.0-8.38-0.38","880","","","STROOPmain","","38","1","1","1096.9739649505318","1200","700","1","1","193559.59999999404","194662.5","195543.09999999404"
"","EPstroop","64","198430","0.0-8.39-0.39","1129","","","STROOPmain","","39","1","0","771.8178798659972","1200","700","0","0","196248.80000001192","197021.70000001788","198151"
"","EPstroop","65","200766","0.0-8.40-0.40","881","","","STROOPmain","","40","0","0","746.7220213264815","1200","700","1","1","198854.90000000596","199605.90000000596","200487.30000001192"
"","EPstroop","66","203506","0.0-8.41-0.41","969","","","STROOPmain","","41","2","2","1061.7731495940293","1200","700","1","1","201190.90000000596","202254","203223.09999999404"
"","EPstroop","67","205854","0.0-8.42-0.42","896","","","STROOPmain","","42","1","1","746.1778595837953","1200","700","1","1","203930.80000001192","204678.5","205575"
"","EPstroop","68","208382","0.0-8.43-0.43","745","","","STROOPmain","","43","2","2","1072.3111190383158","1200","700","1","1","206279.09999999404","207357.80000001192","208103"
"","EPstroop","69","211102","0.0-8.44-0.44","-1","","","STROOPmain","","44","1","2","807.3192938041624","1200","700","-1","0","208807.09999999404","209622.20000001788","210823.30000001192"
"","EPstroop","70","213758","0.0-8.45-0.45","929","","","STROOPmain","","45","1","1","1020.876379256114","1200","700","1","1","211527.5","212550.09999999404","213479.40000000596"
"","EPstroop","71","216126","0.0-8.46-0.46","704","","","STROOPmain","","46","1","1","954.6007236486707","1200","700","1","1","214182.30000001192","215142.30000001192","215846.80000001192"
"","EPstroop","72","218318","0.0-8.47-0.47","657","","","STROOPmain","","47","1","1","828.210842169611","1200","700","1","1","216551.40000000596","217382","218039"
"","EPstroop","73","220734","0.0-8.48-0.48","992","","","STROOPmain","","48","0","1","710.8543854306891","1200","700","0","0","218743.30000001192","219462.20000001788","220453.80000001192"
"","EPstroop","74","223150","0.0-8.49-0.49","616","","","STROOPmain","","49","0","0","1094.9989632128413","1200","700","1","1","221159.09999999404","222254.80000001192","222870.90000000596"
"","EPstroop","75","225294","0.0-8.50-0.50","672","","","STROOPmain","","50","1","1","766.5173919264141","1200","700","1","1","223575.40000000596","224342.59999999404","225015.30000001192"
"","EPstroop","76","227742","0.0-8.51-0.51","752","","","STROOPmain","","51","1","1","988.6459080307789","1200","700","1","1","225719.30000001192","226709.80000001192","227462.30000001192"
"","EPstroop","77","230382","0.0-8.52-0.52","-1","","","STROOPmain","","52","2","1","720.919352637928","1200","700","-1","0","228167","228894.59999999404","230101.90000000596"
"","EPstroop","78","232910","0.0-8.53-0.53","993","","","STROOPmain","","53","0","2","825.87913969219","1200","700","0","0","230806.5","231637.80000001192","232630.80000001192"
"","EPstroop","79","235518","0.0-8.54-0.54","1145","","","STROOPmain","","54","2","2","753.510355911865","1200","700","0","1","233335.30000001192","234093.80000001192","235238.90000000596"
"","EPstroop","80","238126","0.0-8.55-0.55","1112","","","STROOPmain","","55","0","1","790.3504512244324","1200","700","0","0","235942.80000001192","236734.80000001192","237846.70000001788"
"","EPstroop","81","240350","0.0-8.56-0.56","529","","","STROOPmain","","56","0","0","986.3804185098923","1200","700","0","1","238550.90000000596","239542.20000001788","240070.90000000596"
"","EPstroop","82","242735","0.0-8.57-0.57","913","","","STROOPmain","","57","0","0","762.2117834712013","1200","700","1","1","240775.30000001192","241542.09999999404","242454.90000000596"
"","EPstroop","83","245342","0.0-8.58-0.58","952","","","STROOPmain","","58","2","0","944.5326350804985","1200","700","0","0","243159.70000001788","244110.40000000596","245062.70000001788"
"","EPstroop","84","247662","0.0-8.59-0.59","873","","","STROOPmain","","59","2","2","736.7029033934375","1200","700","1","1","245767.30000001192","246510.09999999404","247383.30000001192"
"","EPstroop","85","250014","0.0-8.60-0.60","888","","","STROOPmain","","60","0","2","751.8583615873522","1200","700","0","0","248087.09999999404","248846.70000001788","249734.70000001788"
"","EPstroop","86","252462","0.0-8.61-0.61","873","","","STROOPmain","","61","0","2","867.1685391468645","1200","700","1","0","250439.20000001788","251309.90000000596","252182.90000000596"
"","EPstroop","87","254879","0.0-8.62-0.62","928","","","STROOPmain","","62","2","2","777.28655240069","1200","700","1","1","252887.09999999404","253670.59999999404","254598.90000000596"
"","EPstroop","88","257599","0.0-8.63-0.63","1104","","","STROOPmain","","63","0","0","909.6703942356164","1200","700","1","1","255303.80000001192","256214.70000001788","257318.80000001192"
"","EPstroop","89","260271","0.0-8.64-0.64","1065","","","STROOPmain","","64","1","1","898.8828078017245","1200","700","1","1","258023.20000001788","258926.40000000596","259991.20000001788"
"","EPstroop","90","262814","0.0-8.65-0.65","1016","","","STROOPmain","","65","2","0","820.1368193344816","1200","700","1","0","260695.40000000596","261518.80000001192","262535"
"","EPstroop","91","265150","0.0-8.66-0.66","832","","","STROOPmain","","66","2","2","793.2831302462351","1200","700","1","1","263238.7000000179","264038.40000000596","264871"
"","EPstroop","92","268135","0.0-8.67-0.67","-1","","","STROOPmain","","67","1","1","1065.7122428287207","1200","700","-1","1","265574.8000000119","266645.7000000179","267854"
"","EPstroop","93","270751","0.0-8.68-0.68","1113","","","STROOPmain","","68","2","2","793.5487706931954","1200","700","1","1","268559.40000000596","269358.09999999404","270471.09999999404"
"","EPstroop","94","272927","0.0-8.69-0.69","632","","","STROOPmain","","69","2","2","833.9272745706722","1200","700","1","1","271174.7000000179","272014.2000000179","272646.90000000596"
"","EPstroop","95","275346","0.0-8.70-0.70","616","","","STROOPmain","","70","0","0","1088.991383950488","1200","700","1","1","273351.09999999404","274446.5","275062.8000000119"
"","EPstroop","96","278095","0.0-8.71-0.71","1000","","","STROOPmain","","71","1","2","1039.691231427174","1200","700","1","0","275769.5","276814.3000000119","277814.3000000119"
"true","fullscreen","97","279103","0.0-9.0","","","","","","","","","","","","","","","",""
"","external-html","98","285687","0.0-10.0","5889","","./STROOP_html/endscreen.html","endscreen","","","","","","","","","","","",""
