"success","trial_type","trial_index","time_elapsed","internal_node_id","rt","keypressed","url","trial_tag","value","tnum","string","color","fixdur","respdelay","feedbackdur","correct","congruent","startTime","displayTime","feedbackTime"
"true","fullscreen","0","2783","0.0-0.0","","","","","","","","","","","","","","","",""
"","external-html","1","52048","0.0-1.0-0.0","49211","-1","STROOP_html/welcome1.html","instructions","","","","","","","","","","","",""
"","external-html","2","62477","0.0-2.0-0.0","10371","-1","STROOP_html/welcome2.html","instructions","","","","","","","","","","","",""
"","call-function","3","62584","0.0-3.0","","","","","98.40000000037253","","","","","","","","","","",""
"","EPstroop","4","65374","0.0-4.0-0.0","-1","","","STROOPtrain","","0","2","0","876.6145899036453","1200","700","-1","0","63547.199999999255","64425.09999999963","65632.69999999925"
"","EPstroop","5","68293","0.0-4.1-0.1","-1","","","STROOPtrain","","0","2","2","1005.5829173312818","1200","700","-1","1","66338.29999999888","67344.90000000037","68552.79999999888"
"","EPstroop","6","71062","0.0-4.2-0.2","-1","","","STROOPtrain","","0","0","0","848.2941591085561","1200","700","-1","1","69256.90000000037","70112.19999999925","71319.90000000037"
"","EPstroop","7","73454","0.0-4.3-0.3","726","","","STROOPtrain","","0","2","2","950.2540702610347","1200","700","1","1","72025.79999999888","72984.5","73711.69999999925"
"","EPstroop","8","76221","0.0-4.4-0.4","-1","","","STROOPtrain","","0","0","0","852.5737105671902","1200","700","-1","1","74417.79999999888","75272.40000000037","76480.69999999925"
"","EPstroop","9","79117","0.0-4.5-0.5","-1","","","STROOPtrain","","0","0","1","981.2627534487417","1200","700","-1","0","77185","78168.59999999963","79375.79999999888"
"","EPstroop","10","81518","0.0-4.6-0.6","942","","","STROOPtrain","","0","1","1","743.2209875540215","1200","700","1","1","80081.5","80832.69999999925","81774.29999999888"
"","EPstroop","11","83774","0.0-4.7-0.7","575","","","STROOPtrain","","0","2","2","967.2098168468285","1200","700","1","1","82481.40000000037","83455.79999999888","84030.40000000037"
"","EPstroop","12","86142","0.0-4.8-0.8","726","","","STROOPtrain","","0","1","1","931.1833447541849","1200","700","1","1","84737.79999999888","85672.79999999888","86398.79999999888"
"","EPstroop","13","88717","0.0-4.9-0.9","774","","","STROOPtrain","","0","1","2","1094.5238956311516","1200","700","1","0","87105.40000000037","88200.90000000037","88975"
"","EPstroop","14","90974","0.0-4.10-0.10","647","","","STROOPtrain","","0","1","1","899.4270354813355","1200","700","1","1","89681.09999999963","90583.79999999888","91230.90000000037"
"","EPstroop","15","93230","0.0-4.11-0.11","662","","","STROOPtrain","","0","2","2","881.7908271246372","1200","700","1","1","91937","92824.59999999963","93486.69999999925"
"","EPstroop","16","96077","0.0-4.12-0.12","-1","","","STROOPtrain","","0","2","1","927.6099969291894","1200","700","-1","0","94193.5","95128.59999999963","96336.40000000037"
"","EPstroop","17","98350","0.0-4.13-0.13","638","","","STROOPtrain","","0","0","0","920.1115804116023","1200","700","1","1","97041.40000000037","97968.79999999888","98606.90000000037"
"","EPstroop","18","100797","0.0-4.14-0.14","646","","","STROOPtrain","","0","1","1","1090.0435397083093","1200","700","1","1","99313.69999999925","100408.40000000037","101055"
"","EPstroop","19","103613","0.0-4.15-0.15","-1","","","STROOPtrain","","0","0","0","899.2506047672052","1200","700","-1","1","101761.40000000037","102664.79999999888","103871.79999999888"
"","EPstroop","20","106565","0.0-4.16-0.16","-1","","","STROOPtrain","","0","1","0","1038.4079155868687","1200","700","-1","0","104577.09999999963","105616.40000000037","106824.69999999925"
"","EPstroop","21","108861","0.0-4.17-0.17","846","","","STROOPtrain","","0","0","2","741.8265219468151","1200","700","1","0","107529.59999999963","108272.59999999963","109118.09999999963"
"","external-html","22","119195","0.0-5.0-0.0","10271","-1","STROOP_html/welcome3.html","instructions","","","","","","","","","","","",""
"","call-function","23","119270","0.0-6.0","","","","","73.59999999962747","","","","","","","","","","",""
"","call-function","24","119324","0.0-7.0","","","","","53.5","","","","","","","","","","",""
"","EPstroop","25","121950","0.0-8.0-0.0","1198","","","STROOPmain","","0","1","1","715.0721453050706","1200","700","1","1","120289.79999999888","121008.29999999888","122211.29999999888"
"","EPstroop","26","124061","0.0-8.1-0.1","566","","","STROOPmain","","1","1","1","829.6059253764606","1200","700","1","1","122914.90000000037","123752.29999999888","124319.09999999963"
"","EPstroop","27","126221","0.0-8.2-0.2","733","","","STROOPmain","","2","0","0","712.1524983209044","1200","700","1","1","125025.40000000037","125744.79999999888","126478"
"","EPstroop","28","129021","0.0-8.3-0.3","1062","","","STROOPmain","","3","2","0","1023.1200508761661","1200","700","1","0","127186","128216.09999999963","129279"
"","EPstroop","29","130972","0.0-8.4-0.4","486","","","STROOPmain","","4","1","1","751.1484581399626","1200","700","1","1","129985.40000000037","130744.79999999888","131231.5"
"","EPstroop","30","133277","0.0-8.5-0.5","574","","","STROOPmain","","5","0","0","1018.5247014601987","1200","700","1","1","131937","132960.19999999925","133535"
"","EPstroop","31","135501","0.0-8.6-0.6","783","","","STROOPmain","","6","2","0","731.4665793006096","1200","700","1","0","134241","134975.79999999888","135758.90000000037"
"","EPstroop","32","138253","0.0-8.7-0.7","990","","","STROOPmain","","7","1","2","1050.8680938671891","1200","700","1","0","136465","137520.19999999925","138510.09999999963"
"","EPstroop","33","140381","0.0-8.8-0.8","479","","","STROOPmain","","8","0","0","933.6429300057408","1200","700","1","1","139216.69999999925","140159.40000000037","140638.90000000037"
"","EPstroop","34","142893","0.0-8.9-0.9","998","","","STROOPmain","","9","2","1","805.3940874450133","1200","700","1","0","141345.40000000037","142152.59999999963","143150.29999999888"
"","EPstroop","35","145181","0.0-8.10-0.10","614","","","STROOPmain","","10","2","0","964.0767812684976","1200","700","1","0","143857.5","144825.09999999963","145439.29999999888"
"","EPstroop","36","147741","0.0-8.11-0.11","814","","","STROOPmain","","11","0","1","1032.8487514431572","1200","700","1","0","146145.90000000037","147184.29999999888","147998.90000000037"
"","EPstroop","37","149949","0.0-8.12-0.12","518","","","STROOPmain","","12","2","2","980.3721337518799","1200","700","1","1","148705.79999999888","149689","150207"
"","EPstroop","38","152286","0.0-8.13-0.13","911","","","STROOPmain","","13","0","0","716.3510523759105","1200","700","1","1","150913.19999999925","151632.19999999925","152543"
"","EPstroop","39","154861","0.0-8.14-0.14","982","","","STROOPmain","","14","1","1","878.2471558213738","1200","700","1","1","153250.69999999925","154137.19999999925","155119.09999999963"
"","EPstroop","40","157357","0.0-8.15-0.15","798","","","STROOPmain","","15","0","0","986.0156922470337","1200","700","1","1","155825.19999999925","156816.59999999963","157615"
"","EPstroop","41","159853","0.0-8.16-0.16","1054","","","STROOPmain","","16","1","2","731.1148090182286","1200","700","1","0","158321.5","159056.19999999925","160110.79999999888"
"","EPstroop","42","162349","0.0-8.17-0.17","966","","","STROOPmain","","17","1","0","819.6677640917914","1200","700","0","0","160817.5","161640.5","162606.79999999888"
"","EPstroop","43","164429","0.0-8.18-0.18","622","","","STROOPmain","","18","2","2","744.6806557300571","1200","700","1","1","163313.5","164064.29999999888","164685.90000000037"
"","EPstroop","44","166901","0.0-8.19-0.19","677","","","STROOPmain","","19","1","1","1072.8540283998946","1200","700","1","1","165393.29999999888","166473.40000000037","167151.19999999925"
"","EPstroop","45","169342","0.0-8.20-0.20","937","","","STROOPmain","","20","1","1","790.915826064337","1200","700","1","1","167865.09999999963","168661.40000000037","169598.59999999963"
"","EPstroop","46","171709","0.0-8.21-0.21","798","","","STROOPmain","","21","2","2","860.1036881975472","1200","700","1","1","170306.59999999963","171169","171966.90000000037"
"","EPstroop","47","174365","0.0-8.22-0.22","-1","","","STROOPmain","","22","0","2","737.0967052680722","1200","700","-1","0","172673.5","173416.5","174624"
"","EPstroop","48","176957","0.0-8.23-0.23","926","","","STROOPmain","","23","2","2","954.7912990410358","1200","700","1","1","175329.69999999925","176288.59999999963","177215.09999999963"
"","EPstroop","49","179669","0.0-8.24-0.24","-1","","","STROOPmain","","24","0","0","793.9999834665354","1200","700","-1","1","177920.59999999963","178720.5","179928"
"","EPstroop","50","182157","0.0-8.25-0.25","766","","","STROOPmain","","25","0","0","1009.3557526862343","1200","700","1","1","180633.40000000037","181648.59999999963","182414.90000000037"
"","EPstroop","51","184542","0.0-8.26-0.26","646","","","STROOPmain","","26","0","0","1025.556667439665","1200","700","1","1","183121.19999999925","184152.29999999888","184798.79999999888"
"","EPstroop","52","186606","0.0-8.27-0.27","598","","","STROOPmain","","27","1","1","751.5748598888433","1200","700","1","1","185505.59999999963","186263.90000000037","186862"
"","EPstroop","53","189486","0.0-8.28-0.28","1198","","","STROOPmain","","28","0","2","970.2493842086429","1200","700","1","0","187569.90000000037","188544.29999999888","189743"
"","EPstroop","54","191838","0.0-8.29-0.29","750","","","STROOPmain","","29","0","0","891.6725142600396","1200","700","1","1","190449.90000000037","191344.40000000037","192094.90000000037"
"","EPstroop","55","194589","0.0-8.30-0.30","1158","","","STROOPmain","","30","2","2","879.6730825008102","1200","700","0","1","192801.5","193688.69999999925","194846.69999999925"
"","EPstroop","56","196702","0.0-8.31-0.31","653","","","STROOPmain","","31","2","2","749.6742292515385","1200","700","0","1","195553.29999999888","196304.5","196957.90000000037"
"","EPstroop","57","198910","0.0-8.32-0.32","758","","","STROOPmain","","32","0","0","739.4483782409596","1200","700","1","1","197665.79999999888","198408.40000000037","199166.90000000037"
"","EPstroop","58","201422","0.0-8.33-0.33","718","","","STROOPmain","","33","2","1","1085.1060838455746","1200","700","0","0","199873.79999999888","200960.5","201678.90000000037"
"","EPstroop","59","203950","0.0-8.34-0.34","958","","","STROOPmain","","34","2","2","857.479979750535","1200","700","1","1","202385.79999999888","203248.29999999888","204206.79999999888"
"","EPstroop","60","206950","0.0-8.35-0.35","-1","","","STROOPmain","","35","1","0","1080.1118556377714","1200","700","-1","0","204913.90000000037","206000.09999999963","207208.59999999963"
"","EPstroop","61","209341","0.0-8.36-0.36","847","","","STROOPmain","","36","2","2","835.5069043502103","1200","700","0","1","207913.79999999888","208751.90000000037","209598.59999999963"
"","EPstroop","62","212126","0.0-8.37-0.37","-1","","","STROOPmain","","37","0","1","867.3879055047627","1200","700","-1","0","210305.29999999888","211176.19999999925","212384.40000000037"
"","EPstroop","63","214669","0.0-8.38-0.38","751","","","STROOPmain","","38","2","2","1083.7896719994244","1200","700","1","1","213089.59999999963","214176","214926.90000000037"
"","EPstroop","64","216766","0.0-8.39-0.39","654","","","STROOPmain","","39","0","0","732.0514459190587","1200","700","1","1","215633.19999999925","216368.5","217022.90000000037"
"","EPstroop","65","219101","0.0-8.40-0.40","674","","","STROOPmain","","40","2","2","947.3199604863138","1200","700","1","1","217730","218683.59999999963","219358"
"","EPstroop","66","221453","0.0-8.41-0.41","590","","","STROOPmain","","41","1","1","1053.958673824293","1200","700","1","1","220065.29999999888","221121","221710.90000000037"
"","EPstroop","67","223661","0.0-8.42-0.42","502","","","STROOPmain","","42","0","0","992.5688639270162","1200","700","1","1","222417.19999999925","223416.09999999963","223917.69999999925"
"","EPstroop","68","226077","0.0-8.43-0.43","734","","","STROOPmain","","43","2","2","971.9981177964037","1200","700","1","1","224624.69999999925","225600.19999999925","226334"
"","EPstroop","69","228333","0.0-8.44-0.44","510","","","STROOPmain","","44","1","1","1038.584699781442","1200","700","1","1","227040.90000000037","228080.29999999888","228590.69999999925"
"","EPstroop","70","230206","0.0-8.45-0.45","422","","","STROOPmain","","45","0","0","735.487812772015","1200","700","1","1","229296.59999999963","230040.79999999888","230462.79999999888"
"","EPstroop","71","232638","0.0-8.46-0.46","957","","","STROOPmain","","46","1","0","765.5076935736519","1200","700","1","0","231169.69999999925","231936.59999999963","232893.90000000037"
"","EPstroop","72","235325","0.0-8.47-0.47","-1","","","STROOPmain","","47","2","0","773.63758394077","1200","700","-1","0","233602","234376.59999999963","235584.09999999963"
"","EPstroop","73","237693","0.0-8.48-0.48","926","","","STROOPmain","","48","1","1","733.5094965515925","1200","700","1","1","236289.40000000037","237024.5","237950.90000000037"
"","EPstroop","74","240526","0.0-8.49-0.49","1044","","","STROOPmain","","49","2","1","1074.7991482828652","1200","700","0","0","238657.5","239738.59999999963","240782.59999999963"
"","EPstroop","75","242861","0.0-8.50-0.50","615","","","STROOPmain","","50","0","2","1008.7023852833812","1200","700","0","0","241489.19999999925","242503.79999999888","243118.5"
"","EPstroop","76","245741","0.0-8.51-0.51","1094","","","STROOPmain","","51","2","2","1074.794853770201","1200","700","0","1","243825.19999999925","244905.19999999925","245998.69999999925"
"","EPstroop","77","248206","0.0-8.52-0.52","797","","","STROOPmain","","52","1","1","955.6027669185368","1200","700","0","1","246705.09999999963","247664.69999999925","248462"
"","EPstroop","78","250798","0.0-8.53-0.53","886","","","STROOPmain","","53","2","2","993.7105640203113","1200","700","1","1","249170.09999999963","250168.40000000037","251054.09999999963"
"","EPstroop","79","253165","0.0-8.54-0.54","870","","","STROOPmain","","54","1","2","784.8361578129661","1200","700","1","0","251761.90000000037","252552.5","253422.79999999888"
"","EPstroop","80","256045","0.0-8.55-0.55","1150","","","STROOPmain","","55","0","1","1015.3041490304074","1200","700","0","0","254128.79999999888","255153","256302.69999999925"
"","EPstroop","81","258591","0.0-8.56-0.56","734","","","STROOPmain","","56","1","1","1099.6820927215285","1200","700","1","1","257009","258112.19999999925","258846.79999999888"
"","EPstroop","82","260958","0.0-8.57-0.57","630","","","STROOPmain","","57","0","0","1028.767914401972","1200","700","1","1","259554.5","260584.5","261214.90000000037"
"","EPstroop","83","263597","0.0-8.58-0.58","838","","","STROOPmain","","58","2","2","1090.7468720698446","1200","700","1","1","261922.29999999888","263016.0999999996","263854.7999999989"
"","EPstroop","84","266013","0.0-8.59-0.59","761","","","STROOPmain","","59","1","1","930.6062094723161","1200","700","1","1","264561.19999999925","265509.5","266270.9000000004"
"","EPstroop","85","268541","0.0-8.60-0.60","1030","","","STROOPmain","","60","1","2","785.38638933165","1200","700","0","0","266976.5","267768.2999999989","268798.69999999925"
"","EPstroop","86","271245","0.0-8.61-0.61","-1","","","STROOPmain","","61","0","1","790.199356625909","1200","700","-1","0","269505.5","270296.5999999996","271504.5"
"","EPstroop","87","273582","0.0-8.62-0.62","695","","","STROOPmain","","62","1","1","933.3857346807099","1200","700","1","1","272209.5","273144","273838.9000000004"
"","EPstroop","88","276093","0.0-8.63-0.63","701","","","STROOPmain","","63","0","0","1097.8374157990884","1200","700","1","1","274545.9000000004","275648.4000000004","276349.5999999996"
"","EPstroop","89","278413","0.0-8.64-0.64","613","","","STROOPmain","","64","0","0","995.7419795029122","1200","700","1","1","277057.5","278056.5","278669.7999999989"
"","EPstroop","90","280734","0.0-8.65-0.65","870","","","STROOPmain","","65","1","1","741.0070109917924","1200","700","1","1","279377.69999999925","280120.0999999996","280990.0999999996"
"","EPstroop","91","283422","0.0-8.66-0.66","949","","","STROOPmain","","66","2","1","1030.9969642534788","1200","700","1","0","281697.19999999925","282729.19999999925","283678.5"
"","EPstroop","92","285822","0.0-8.67-0.67","798","","","STROOPmain","","67","2","2","892.6977490510636","1200","700","1","1","284386","285280.2999999989","286078.5"
"","EPstroop","93","288109","0.0-8.68-0.68","870","","","STROOPmain","","68","1","1","706.7974889395956","1200","700","1","1","286786","287496.2999999989","288366.69999999925"
"","EPstroop","94","290526","0.0-8.69-0.69","918","","","STROOPmain","","69","2","2","787.190832342677","1200","700","1","1","289072.7999999989","289864.9000000004","290782.7999999989"
"","EPstroop","95","292989","0.0-8.70-0.70","813","","","STROOPmain","","70","1","0","941.6649656825523","1200","700","0","0","291490","292432.4000000004","293245.7999999989"
"","EPstroop","96","295941","0.0-8.71-0.71","-1","","","STROOPmain","","71","0","2","1032.081054511416","1200","700","-1","0","293953.0999999996","294992.4000000004","296200"
"true","fullscreen","97","296949","0.0-9.0","","","","","","","","","","","","","","","",""
"","external-html","98","307307","0.0-10.0","10128","","./STROOP_html/endscreen.html","endscreen","","","","","","","","","","","",""
