"success","trial_type","trial_index","time_elapsed","internal_node_id","rt","keypressed","url","trial_tag","value","tnum","string","color","fixdur","respdelay","feedbackdur","correct","congruent","startTime","displayTime","feedbackTime"
"true","fullscreen","0","4549","0.0-0.0","","","","","","","","","","","","","","","",""
"","external-html","1","83085","0.0-1.0-0.0","78475","-1","STROOP_html/welcome1.html","instructions","","","","","","","","","","","",""
"","external-html","2","87512","0.0-2.0-0.0","4227","-1","STROOP_html/welcome2.html","instructions","","","","","","","","","","","",""
"","call-function","3","87581","0.0-3.0","","","","","66.59999999403954","","","","","","","","","","",""
"","EPstroop","4","90101","0.0-4.0-0.0","1079","","","STROOPtrain","","0","2","0","739.8754240272656","1200","700","0","0","88043.09999999404","88783.39999999106","89862.29999999702"
"","EPstroop","5","92822","0.0-4.1-0.1","-1","","","STROOPtrain","","0","0","1","817.1896160825836","1200","700","-1","0","90563.59999999404","91381.89999999106","92583.19999998808"
"","EPstroop","6","95512","0.0-4.2-0.2","901","","","STROOPtrain","","0","0","0","1083.4829166361212","1200","700","1","1","93285.29999999702","94369.59999999404","95271"
"","EPstroop","7","98503","0.0-4.3-0.3","-1","","","STROOPtrain","","0","1","2","1088.016427722539","1200","700","-1","0","95973.39999999106","97062.39999999106","98263"
"","EPstroop","8","101298","0.0-4.4-0.4","-1","","","STROOPtrain","","0","1","0","893.7567921765137","1200","700","-1","0","98964.29999999702","99858.5","101058.79999999702"
"","EPstroop","9","104023","0.0-4.5-0.5","973","","","STROOPtrain","","0","1","1","1048.3439137500025","1200","700","1","1","101760.5","102809.39999999106","103782.69999998808"
"","EPstroop","10","106103","0.0-4.6-0.6","581","","","STROOPtrain","","0","2","2","796.4938460270165","1200","700","1","1","104484.59999999404","105281.89999999106","105863"
"","EPstroop","11","108374","0.0-4.7-0.7","562","","","STROOPtrain","","0","0","0","1007.5966432559321","1200","700","1","1","106564.59999999404","107572.89999999106","108134.69999998808"
"","EPstroop","12","111285","0.0-4.8-0.8","-1","","","STROOPtrain","","0","2","1","1007.5419064254495","1200","700","-1","0","108835.59999999404","109843.79999999702","111044.89999999106"
"","EPstroop","13","113919","0.0-4.9-0.9","-1","","","STROOPtrain","","0","0","2","717.7425405636088","1200","700","-1","0","111746.89999999106","112466","113678.79999999702"
"","EPstroop","14","116778","0.0-4.10-0.10","-1","","","STROOPtrain","","0","0","0","956.8559847615388","1200","700","-1","1","114380.89999999106","115337.69999998808","116538"
"","EPstroop","15","119304","0.0-4.11-0.11","825","","","STROOPtrain","","0","1","1","997.6140531252705","1200","700","1","1","117240.09999999404","118237.59999999404","119062.59999999404"
"","EPstroop","16","121623","0.0-4.12-0.12","724","","","STROOPtrain","","0","2","2","891.8474377730349","1200","700","1","1","119766.09999999404","120658.29999999702","121382.59999999404"
"","EPstroop","17","123975","0.0-4.13-0.13","708","","","STROOPtrain","","0","2","2","942.5094305577718","1200","700","1","1","122083.79999999702","123026.59999999404","123734.59999999404"
"","EPstroop","18","126262","0.0-4.14-0.14","842","","","STROOPtrain","","0","0","0","742.3302164155056","1200","700","1","1","124436.69999998808","125180","126022.5"
"","EPstroop","19","128470","0.0-4.15-0.15","731","","","STROOPtrain","","0","1","1","774.5605795845165","1200","700","1","1","126724.09999999404","127499.29999999702","128229.89999999106"
"","EPstroop","20","130486","0.0-4.16-0.16","557","","","STROOPtrain","","0","2","2","757.8094035969252","1200","700","1","1","128931.59999999404","129689.39999999106","130246.5"
"","EPstroop","21","132838","0.0-4.17-0.17","833","","","STROOPtrain","","0","1","1","817.2773957789113","1200","700","1","1","130947.59999999404","131765.39999999106","132598.59999999404"
"","external-html","22","138697","0.0-5.0-0.0","5796","-1","STROOP_html/welcome3.html","instructions","","","","","","","","","","","",""
"","call-function","23","138759","0.0-6.0","","","","","59.900000005960464","","","","","","","","","","",""
"","call-function","24","138830","0.0-7.0","","","","","69.90000000596046","","","","","","","","","","",""
"","EPstroop","25","141593","0.0-8.0-0.0","-1","","","STROOPmain","","0","1","1","853.1658675457985","1200","700","-1","1","139294.39999999106","140147.69999998808","141348.19999998808"
"","EPstroop","26","143980","0.0-8.1-0.1","793","","","STROOPmain","","1","1","1","886.1971553666726","1200","700","1","1","142055.29999999702","142941.89999999106","143740.29999999702"
"","EPstroop","27","146295","0.0-8.2-0.2","583","","","STROOPmain","","2","2","2","1029.6844377788534","1200","700","1","1","144442.09999999404","145471.59999999404","146054.69999998808"
"","EPstroop","28","149095","0.0-8.3-0.3","1163","","","STROOPmain","","3","0","0","934.6643544695767","1200","700","1","1","146756.59999999404","147691.59999999404","148854.69999998808"
"","EPstroop","29","151995","0.0-8.4-0.4","-1","","","STROOPmain","","4","0","0","995.1031670072732","1200","700","-1","1","149556.69999998808","150553.39999999106","151755.19999998808"
"","EPstroop","30","154870","0.0-8.5-0.5","-1","","","STROOPmain","","5","2","0","970.5948129038454","1200","700","-1","0","152456.79999999702","153427.39999999106","154628.29999999702"
"","EPstroop","31","157513","0.0-8.6-0.6","1050","","","STROOPmain","","6","0","0","889.0621380968098","1200","700","0","1","155330.29999999702","156220.69999998808","157270.59999999404"
"","EPstroop","32","160137","0.0-8.7-0.7","928","","","STROOPmain","","7","0","0","993.1650844300348","1200","700","1","1","157972.59999999404","158967","159894.89999999106"
"","EPstroop","33","162408","0.0-8.8-0.8","536","","","STROOPmain","","8","1","1","1032.8118845124595","1200","700","1","1","160597.09999999404","161630.59999999404","162166.59999999404"
"","EPstroop","34","165226","0.0-8.9-0.9","1118","","","STROOPmain","","9","0","2","997.9916009884926","1200","700","1","0","162867.5","163865.19999998808","164983.09999999404"
"","EPstroop","35","167576","0.0-8.10-0.10","767","","","STROOPmain","","10","2","2","880.418639117058","1200","700","1","1","165685.89999999106","166567.5","167334.69999998808"
"","EPstroop","36","170265","0.0-8.11-0.11","1143","","","STROOPmain","","11","0","0","843.997887133265","1200","700","1","1","168036.39999999106","168879.79999999702","170022.79999999702"
"","EPstroop","37","172937","0.0-8.12-0.12","888","","","STROOPmain","","12","0","0","1082.0942334518381","1200","700","1","1","170724","171806.79999999702","172695"
"","EPstroop","38","175390","0.0-8.13-0.13","887","","","STROOPmain","","13","1","1","858.4624673770275","1200","700","1","1","173396.5","174255.29999999702","175142.89999999106"
"","EPstroop","39","178290","0.0-8.14-0.14","-1","","","STROOPmain","","14","2","1","996.9127267412051","1200","700","-1","0","175849.5","176847.19999998808","178048"
"","EPstroop","40","181026","0.0-8.15-0.15","-1","","","STROOPmain","","15","1","2","832.0481091613977","1200","700","-1","0","178749.79999999702","179582.69999998808","180783.79999999702"
"","EPstroop","41","183496","0.0-8.16-0.16","737","","","STROOPmain","","16","2","2","1030.0655949347242","1200","700","1","1","181486.09999999404","182517.29999999702","183254.79999999702"
"","EPstroop","42","186137","0.0-8.17-0.17","1022","","","STROOPmain","","17","2","1","917.6664853359642","1200","700","0","0","183955.69999998808","184873.19999998808","185894.89999999106"
"","EPstroop","43","188649","0.0-8.18-0.18","887","","","STROOPmain","","18","0","0","921.9930094440822","1200","700","1","1","186596.79999999702","187519.19999998808","188406.59999999404"
"","EPstroop","44","191546","0.0-8.19-0.19","1110","","","STROOPmain","","19","1","2","1082.9270364051035","1200","700","1","0","189109","190192.19999998808","191302.69999998808"
"","EPstroop","45","194042","0.0-8.20-0.20","894","","","STROOPmain","","20","2","2","897.6517421223061","1200","700","1","1","192005.89999999106","192904","193798.59999999404"
"","EPstroop","46","196728","0.0-8.21-0.21","1006","","","STROOPmain","","21","1","1","976.9862283317229","1200","700","1","1","194502","195479.59999999404","196485.79999999702"
"","EPstroop","47","199160","0.0-8.22-0.22","851","","","STROOPmain","","22","0","0","879.5719977172505","1200","700","1","1","197187.5","198067.39999999106","198918.59999999404"
"","EPstroop","48","201877","0.0-8.23-0.23","973","","","STROOPmain","","23","1","2","1024.5649360241455","1200","700","1","0","199620.29999999702","200649.19999998808","201622.69999998808"
"","EPstroop","49","204456","0.0-8.24-0.24","844","","","STROOPmain","","24","1","0","1032.1006972099585","1200","700","0","0","202336.89999999106","203370.59999999404","204214.5"
"","EPstroop","50","207161","0.0-8.25-0.25","1021","","","STROOPmain","","25","1","1","981.2855570038842","1200","700","1","1","204916.19999998808","205897.59999999404","206918.79999999702"
"","EPstroop","51","209465","0.0-8.26-0.26","556","","","STROOPmain","","26","2","2","1044.6995608661855","1200","700","1","1","207621","208666.39999999106","209222.59999999404"
"","EPstroop","52","212200","0.0-8.27-0.27","971","","","STROOPmain","","27","1","1","1062.7717734685216","1200","700","0","1","209924.59999999404","210987.19999998808","211958.39999999106"
"","EPstroop","53","214905","0.0-8.28-0.28","1025","","","STROOPmain","","28","1","0","976.5608557097637","1200","700","0","0","212660.09999999404","213637.19999998808","214662.5"
"","EPstroop","54","217660","0.0-8.29-0.29","-1","","","STROOPmain","","29","2","2","852.5753605113159","1200","700","-1","1","215363.89999999106","216216.19999998808","217416.39999999106"
"","EPstroop","55","219978","0.0-8.30-0.30","756","","","STROOPmain","","30","1","1","859.6617563546563","1200","700","1","1","218118.59999999404","218978.5","219734.89999999106"
"","EPstroop","56","222298","0.0-8.31-0.31","668","","","STROOPmain","","31","1","1","949.3415162193512","1200","700","1","1","220436","221386","222054.5"
"","EPstroop","57","224425","0.0-8.32-0.32","576","","","STROOPmain","","32","1","1","849.3377041376559","1200","700","1","1","222756.69999998808","223606.39999999106","224182.5"
"","EPstroop","58","226586","0.0-8.33-0.33","687","","","STROOPmain","","33","2","2","771.7500176139017","1200","700","1","1","224883.29999999702","225655.29999999702","226342.59999999404"
"","EPstroop","59","229490","0.0-8.34-0.34","-1","","","STROOPmain","","34","1","1","1000.6697509594084","1200","700","-1","1","227043.79999999702","228045.19999998808","229246.29999999702"
"","EPstroop","60","231802","0.0-8.35-0.35","759","","","STROOPmain","","35","0","0","849.2268417082277","1200","700","1","1","229948.39999999106","230798.79999999702","231558.39999999106"
"","EPstroop","61","234652","0.0-8.36-0.36","-1","","","STROOPmain","","36","0","1","946.4314465148728","1200","700","-1","0","232260.59999999404","233207.79999999702","234409"
"","EPstroop","62","237146","0.0-8.37-0.37","957","","","STROOPmain","","37","2","2","834.5394887354514","1200","700","1","1","235110.59999999404","235945.19999998808","236902.59999999404"
"","EPstroop","63","239305","0.0-8.38-0.38","672","","","STROOPmain","","38","2","1","785.9573834914131","1200","700","1","0","237604.29999999702","238389.89999999106","239061.59999999404"
"","EPstroop","64","241450","0.0-8.39-0.39","582","","","STROOPmain","","39","0","0","860.9445583254749","1200","700","1","1","239762.79999999702","240624.29999999702","241206.79999999702"
"","EPstroop","65","243530","0.0-8.40-0.40","598","","","STROOPmain","","40","2","2","779.5575802978168","1200","700","1","1","241908.79999999702","242688.5","243286.69999998808"
"","EPstroop","66","246351","0.0-8.41-0.41","-1","","","STROOPmain","","41","2","1","918.3819707774305","1200","700","-1","0","243988.29999999702","244907.89999999106","246108.19999998808"
"","EPstroop","67","248874","0.0-8.42-0.42","799","","","STROOPmain","","42","0","0","1020.2723722557184","1200","700","1","1","246810","247831","248630.59999999404"
"","EPstroop","68","251724","0.0-8.43-0.43","-1","","","STROOPmain","","43","2","2","935.9763533318112","1200","700","-1","1","249332.89999999106","250280.19999998808","251480.39999999106"
"","EPstroop","69","254410","0.0-8.44-0.44","976","","","STROOPmain","","44","0","0","1008.1506548045459","1200","700","1","1","252181.79999999702","253190.39999999106","254166.79999999702"
"","EPstroop","70","256427","0.0-8.45-0.45","605","","","STROOPmain","","45","0","0","707.3213738612","1200","700","1","1","254869","255577.39999999106","256182.5"
"","EPstroop","71","258378","0.0-8.46-0.46","537","","","STROOPmain","","46","0","0","711.0430133600141","1200","700","1","1","256885.79999999702","257597.79999999702","258134.59999999404"
"","EPstroop","72","261306","0.0-8.47-0.47","1198","","","STROOPmain","","47","2","0","1027.4966154537065","1200","700","0","0","258835.69999998808","259864.39999999106","261062.29999999702"
"","EPstroop","73","263930","0.0-8.48-0.48","1171","","","STROOPmain","","48","1","2","750.8702259559717","1200","700","0","0","261764.39999999106","262515","263686.09999999404"
"","EPstroop","74","266490","0.0-8.49-0.49","1084","","","STROOPmain","","49","1","1","774.6624408051998","1200","700","1","1","264388.39999999106","265162.799999997","266246.6999999881"
"","EPstroop","75","269146","0.0-8.50-0.50","1199","","","STROOPmain","","50","0","1","755.9732043333601","1200","700","1","0","266948","267703.59999999404","268902.5"
"","EPstroop","76","271785","0.0-8.51-0.51","887","","","STROOPmain","","51","0","1","1049.0734017353993","1200","700","1","0","269604.39999999106","270654.799999997","271541.6999999881"
"","EPstroop","77","274152","0.0-8.52-0.52","737","","","STROOPmain","","52","2","2","928.219100592552","1200","700","1","1","272243.6999999881","273172.5","273909.59999999404"
"","EPstroop","78","276763","0.0-8.53-0.53","1197","","","STROOPmain","","53","0","2","710.1934097485056","1200","700","0","0","274610.799999997","275322.09999999404","276518.59999999404"
"","EPstroop","79","279393","0.0-8.54-0.54","-1","","","STROOPmain","","54","0","1","727.9960403945807","1200","700","-1","0","277220.59999999404","277948.1999999881","279148.799999997"
"","EPstroop","80","281786","0.0-8.55-0.55","913","","","STROOPmain","","55","1","1","769.5880524621667","1200","700","1","1","279850.6999999881","280629","281542.39999999106"
"","EPstroop","81","284554","0.0-8.56-0.56","-1","","","STROOPmain","","56","2","0","865.6521483149771","1200","700","-1","0","282244","283109.5","284309.89999999106"
"","EPstroop","82","287291","0.0-8.57-0.57","1098","","","STROOPmain","","57","1","1","936.4914331293168","1200","700","1","1","285011.799999997","285948.09999999404","287046.6999999881"
"","EPstroop","83","290085","0.0-8.58-0.58","-1","","","STROOPmain","","58","1","0","889.5208127955656","1200","700","-1","0","287748.89999999106","288639.299999997","289840.89999999106"
"","EPstroop","84","292974","0.0-8.59-0.59","-1","","","STROOPmain","","59","2","2","982.0154358493057","1200","700","-1","1","290542.39999999106","291525","292726.89999999106"
"","EPstroop","85","295595","0.0-8.60-0.60","1075","","","STROOPmain","","60","1","0","843.9843447998901","1200","700","1","0","293431.299999997","294275.5","295350.59999999404"
"","EPstroop","86","298250","0.0-8.61-0.61","1070","","","STROOPmain","","61","2","0","883.329277683386","1200","700","1","0","296051.89999999106","296936.299999997","298006.6999999881"
"","EPstroop","87","300714","0.0-8.62-0.62","1020","","","STROOPmain","","62","2","2","742.9492566837008","1200","700","0","1","298707.5","299449.6999999881","300469.39999999106"
"","EPstroop","88","303355","0.0-8.63-0.63","-1","","","STROOPmain","","63","0","0","736.7439019816081","1200","700","-1","1","301171.799999997","301908.59999999404","303110.39999999106"
"","EPstroop","89","305530","0.0-8.64-0.64","576","","","STROOPmain","","64","2","2","897.9078028946789","1200","700","1","1","303811.89999999106","304710.09999999404","305286.39999999106"
"","EPstroop","90","307834","0.0-8.65-0.65","586","","","STROOPmain","","65","2","2","1014.0865624292412","1200","700","1","1","305988","307003.09999999404","307589.59999999404"
"","EPstroop","91","309963","0.0-8.66-0.66","692","","","STROOPmain","","66","1","1","734.7183051654696","1200","700","1","1","308291.39999999106","309026.1999999881","309718.6999999881"
"","EPstroop","92","312426","0.0-8.67-0.67","689","","","STROOPmain","","67","1","1","1071.0605238107291","1200","700","1","1","310420.59999999404","311492.09999999404","312181.5"
"","EPstroop","93","314938","0.0-8.68-0.68","885","","","STROOPmain","","68","0","2","924.2278793387934","1200","700","1","0","312883.6999999881","313808.1999999881","314693.799999997"
"","EPstroop","94","317226","0.0-8.69-0.69","561","","","STROOPmain","","69","0","2","1025.8699272681233","1200","700","1","0","315395.59999999404","316421.09999999404","316982.1999999881"
"","EPstroop","95","319594","0.0-8.70-0.70","735","","","STROOPmain","","70","2","2","930.0963782335532","1200","700","1","1","317684.299999997","318615.59999999404","319350.39999999106"
"","EPstroop","96","322343","0.0-8.71-0.71","-1","","","STROOPmain","","71","0","0","844.2651330669747","1200","700","-1","1","320052.299999997","320897.6999999881","322098.39999999106"
"true","fullscreen","97","323344","0.0-9.0","","","","","","","","","","","","","","","",""
"","external-html","98","349287","0.0-10.0","25728","","./STROOP_html/endscreen.html","endscreen","","","","","","","","","","","",""
