"success","trial_type","trial_index","time_elapsed","internal_node_id","rt","keypressed","url","trial_tag","value","tnum","string","color","fixdur","respdelay","feedbackdur","correct","congruent","startTime","displayTime","feedbackTime"
"true","fullscreen","0","2150","0.0-0.0","","","","","","","","","","","","","","","",""
"","external-html","1","9273","0.0-1.0-0.0","7062","-1","STROOP_html/welcome1.html","instructions","","","","","","","","","","","",""
"","external-html","2","12682","0.0-2.0-0.0","3340","-1","STROOP_html/welcome2.html","instructions","","","","","","","","","","","",""
"","call-function","3","12758","0.0-3.0","","","","","72.6000000089407","","","","","","","","","","",""
"","EPstroop","4","15531","0.0-4.0-0.0","-1","","","STROOPtrain","","0","1","0","828.8523100423317","1200","700","-1","0","13061.199999988079","13903.199999988079","15110.699999988079"
"","EPstroop","5","18181","0.0-4.1-0.1","1124","","","STROOPtrain","","0","1","1","806.2152958583546","1200","700","1","1","15833.79999999702","16643.09999999404","17767.09999999404"
"","EPstroop","6","20671","0.0-4.2-0.2","764","","","STROOPtrain","","0","0","1","977.6913941295913","1200","700","1","0","18484.19999998808","19482.89999999106","20247"
"","EPstroop","7","22781","0.0-4.3-0.3","531","","","STROOPtrain","","0","0","2","864.6752646474655","1200","700","1","0","20974.19999998808","21843.29999999702","22374.29999999702"
"","EPstroop","8","24901","0.0-4.4-0.4","523","","","STROOPtrain","","0","1","1","875.1941041578485","1200","700","1","1","23084.19999998808","23963.29999999702","24486.29999999702"
"","EPstroop","9","26771","0.0-4.5-0.5","316","","","STROOPtrain","","0","0","0","817.7910957669166","1200","700","1","1","25204.19999998808","26043.29999999702","26359"
"","EPstroop","10","29001","0.0-4.6-0.6","410","","","STROOPtrain","","0","2","2","1093.544376015404","1200","700","0","1","27073.5","28173.5","28583.09999999404"
"","EPstroop","11","31035","0.0-4.7-0.7","388","","","STROOPtrain","","0","2","2","913.0069838719555","1200","700","1","1","29304.29999999702","30242.89999999106","30631.09999999404"
"","EPstroop","12","33195","0.0-4.8-0.8","525","","","STROOPtrain","","0","2","2","923.5998624179044","1200","700","1","1","31339","32266","32791"
"","EPstroop","13","35100","0.0-4.9-0.9","469","","","STROOPtrain","","0","0","0","721.55623631719","1200","700","1","1","33498.59999999404","34226.19999998808","34695"
"","EPstroop","14","37051","0.0-4.10-0.10","285","","","STROOPtrain","","0","1","1","951.9757337072712","1200","700","1","1","35403.59999999404","36361.69999998808","36647.19999998808"
"","EPstroop","15","39404","0.0-4.11-0.11","805","","","STROOPtrain","","0","1","2","835.4399670194646","1200","700","0","0","37354.69999998808","38194.19999998808","38999.09999999404"
"","EPstroop","16","41660","0.0-4.12-0.12","485","","","STROOPtrain","","0","0","0","1060.5520757245768","1200","700","1","1","39707.39999999106","40769.59999999404","41255.19999998808"
"","EPstroop","17","43613","0.0-4.13-0.13","453","","","STROOPtrain","","0","0","0","789.499785222406","1200","700","1","1","41962.19999998808","42754.29999999702","43207.39999999106"
"","EPstroop","18","45692","0.0-4.14-0.14","629","","","STROOPtrain","","0","2","1","734.4843286256759","1200","700","0","0","43915.59999999404","44657.5","45286"
"","EPstroop","19","47846","0.0-4.15-0.15","716","","","STROOPtrain","","0","2","2","714.6547388687945","1200","700","1","1","45994.09999999404","46714","47430.39999999106"
"","EPstroop","20","49765","0.0-4.16-0.16","508","","","STROOPtrain","","0","1","1","703.3614213275154","1200","700","1","1","48148.79999999702","48857.69999998808","49366.09999999404"
"","EPstroop","21","52405","0.0-4.17-0.17","-1","","","STROOPtrain","","0","2","0","722.5605497543365","1200","700","-1","0","50067.09999999404","50794","52002.59999999404"
"","external-html","22","56490","0.0-5.0-0.0","4023","-1","STROOP_html/welcome3.html","instructions","","","","","","","","","","","",""
"","call-function","23","56552","0.0-6.0","","","","","56.900000005960464","","","","","","","","","","",""
"","call-function","24","56716","0.0-7.0","","","","","164.70000000298023","","","","","","","","","","",""
"","EPstroop","25","58973","0.0-8.0-0.0","484","","","STROOPmain","","0","0","0","1058.720918327338","1200","700","1","1","57019.5","58081.89999999106","58568.39999999106"
"","EPstroop","26","61436","0.0-8.1-0.1","683","","","STROOPmain","","1","2","2","1067.9607869316899","1200","700","1","1","59275.29999999702","60346.69999998808","61030.19999998808"
"","EPstroop","27","63277","0.0-8.2-0.2","365","","","STROOPmain","","2","1","1","761.7411690602603","1200","700","1","1","61738.79999999702","62505.89999999106","62871.09999999404"
"","EPstroop","28","65677","0.0-8.3-0.3","629","","","STROOPmain","","3","1","0","1054.4328775571116","1200","700","1","0","63579.29999999702","64642.19999998808","65271.89999999106"
"","EPstroop","29","67773","0.0-8.4-0.4","365","","","STROOPmain","","4","1","1","1017.5618198531608","1200","700","1","1","65979.39999999106","67002.29999999702","67367.59999999404"
"","EPstroop","30","70013","0.0-8.5-0.5","557","","","STROOPmain","","5","0","0","972.2511544522874","1200","700","1","1","68075.5","69049.89999999106","69607.39999999106"
"","EPstroop","31","72300","0.0-8.6-0.6","774","","","STROOPmain","","6","1","1","799.3890454258719","1200","700","1","1","70315.5","71121.89999999106","71895.79999999702"
"","EPstroop","32","75036","0.0-8.7-0.7","1021","","","STROOPmain","","7","1","0","1006.8413417371112","1200","700","1","0","72602.29999999702","73609.59999999404","74631.5"
"","EPstroop","33","77117","0.0-8.8-0.8","621","","","STROOPmain","","8","2","0","743.0533827214392","1200","700","1","0","75338.29999999702","76089.79999999702","76711.59999999404"
"","EPstroop","34","79308","0.0-8.9-0.9","469","","","STROOPmain","","9","2","2","1007.0405057491957","1200","700","1","1","77419.29999999702","78434.19999998808","78903.69999998808"
"","EPstroop","35","81532","0.0-8.10-0.10","508","","","STROOPmain","","10","2","2","1004.0185506676166","1200","700","1","1","79610.89999999106","80618.09999999404","81126.79999999702"
"","EPstroop","36","83532","0.0-8.11-0.11","580","","","STROOPmain","","11","0","0","703.4752853524117","1200","700","1","1","81834.39999999106","82546","83126.29999999702"
"","EPstroop","37","85981","0.0-8.12-0.12","693","","","STROOPmain","","12","1","1","1041.740470028618","1200","700","1","1","83835","84881.69999998808","85575.29999999702"
"","EPstroop","38","88540","0.0-8.13-0.13","821","","","STROOPmain","","13","0","1","1023.0492633415861","1200","700","1","0","86283.19999998808","87314","88135.39999999106"
"","EPstroop","39","91020","0.0-8.14-0.14","941","","","STROOPmain","","14","0","0","823.7665823218965","1200","700","1","1","88842.69999998808","89674.29999999702","90615.59999999404"
"","EPstroop","40","93085","0.0-8.15-0.15","622","","","STROOPmain","","15","2","2","735.5989261044936","1200","700","1","1","91321.89999999106","92057.29999999702","92679.09999999404"
"","EPstroop","41","95101","0.0-8.16-0.16","557","","","STROOPmain","","16","1","1","742.1540862005937","1200","700","1","1","93387.59999999404","94138.39999999106","94695.89999999106"
"","EPstroop","42","97292","0.0-8.17-0.17","740","","","STROOPmain","","17","2","2","742.0788807533984","1200","700","1","1","95402.59999999404","96147","96887.29999999702"
"","EPstroop","43","99388","0.0-8.18-0.18","381","","","STROOPmain","","18","1","1","1006.3227065135696","1200","700","1","1","97594.19999998808","98602.39999999106","98983.39999999106"
"","EPstroop","44","101373","0.0-8.19-0.19","565","","","STROOPmain","","19","2","2","706.6063633809814","1200","700","1","1","99690.59999999404","100401.89999999106","100966.69999998808"
"","EPstroop","45","103581","0.0-8.20-0.20","485","","","STROOPmain","","20","1","0","1013.0086695931537","1200","700","1","0","101674.59999999404","102690.39999999106","103175.29999999702"
"","EPstroop","46","105421","0.0-8.21-0.21","421","","","STROOPmain","","21","1","1","704.0945438606578","1200","700","1","1","103883.19999998808","104594","105015.39999999106"
"","EPstroop","47","107677","0.0-8.22-0.22","509","","","STROOPmain","","22","0","0","1033.5371076561041","1200","700","1","1","105723.39999999106","106762.19999998808","107271.39999999106"
"","EPstroop","48","110349","0.0-8.23-0.23","949","","","STROOPmain","","23","1","2","1014.4766864685787","1200","700","1","0","107978.69999998808","108994.09999999404","109943.39999999106"
"","EPstroop","49","112918","0.0-8.24-0.24","1029","","","STROOPmain","","24","0","1","818.9735084902751","1200","700","1","0","110650.59999999404","111474","112503.59999999404"
"","EPstroop","50","115277","0.0-8.25-0.25","693","","","STROOPmain","","25","2","2","956.3293042447142","1200","700","0","1","113220.5","114178.19999998808","114871.09999999404"
"","EPstroop","51","117789","0.0-8.26-0.26","741","","","STROOPmain","","26","0","2","1060.4840782686629","1200","700","0","0","115578.69999998808","116642","117383.19999998808"
"","EPstroop","52","119917","0.0-8.27-0.27","421","","","STROOPmain","","27","1","2","997.3575109546026","1200","700","1","0","118090.59999999404","119089.79999999702","119511.5"
"","EPstroop","53","121949","0.0-8.28-0.28","374","","","STROOPmain","","28","2","2","946.0868249678533","1200","700","1","1","120218.69999998808","121169.59999999404","121543.29999999702"
"","EPstroop","54","124317","0.0-8.29-0.29","644","","","STROOPmain","","29","0","0","1014.4655187525304","1200","700","1","1","122251","123266.09999999404","123910.39999999106"
"","EPstroop","55","126765","0.0-8.30-0.30","845","","","STROOPmain","","30","0","0","890.9706201435715","1200","700","1","1","124618.29999999702","125514.69999998808","126359.5"
"","EPstroop","56","129277","0.0-8.31-0.31","757","","","STROOPmain","","31","1","1","1043.4491829395738","1200","700","1","1","127067.39999999106","128114.09999999404","128871.39999999106"
"","EPstroop","57","131356","0.0-8.32-0.32","445","","","STROOPmain","","32","2","2","925.7070633623645","1200","700","1","1","129579.19999998808","130505.5","130951.19999998808"
"","EPstroop","58","133261","0.0-8.33-0.33","445","","","STROOPmain","","33","1","1","747.424046302876","1200","700","1","1","131658.59999999404","132410.5","132855.39999999106"
"","EPstroop","59","135741","0.0-8.34-0.34","861","","","STROOPmain","","34","2","0","909.0347789010871","1200","700","1","0","133562.19999998808","134473.89999999106","135334.69999998808"
"","EPstroop","60","138461","0.0-8.35-0.35","1022","","","STROOPmain","","35","0","2","986.1644828144877","1200","700","1","0","136042.79999999702","137033.5","138055.39999999106"
"","EPstroop","61","140669","0.0-8.36-0.36","637","","","STROOPmain","","36","2","2","861.0621135630985","1200","700","1","1","138763.09999999404","139625.89999999106","140263.09999999404"
"","EPstroop","62","142829","0.0-8.37-0.37","693","","","STROOPmain","","37","0","0","754.6328043144828","1200","700","1","1","140970.79999999702","141729.39999999106","142422.69999998808"
"","EPstroop","63","145117","0.0-8.38-0.38","589","","","STROOPmain","","38","2","2","988.0125041474181","1200","700","1","1","143130.79999999702","144122.09999999404","144711.19999998808"
"","EPstroop","64","147709","0.0-8.39-0.39","910","","","STROOPmain","","39","1","2","970.9753140400921","1200","700","1","0","145417.89999999106","146393.59999999404","147303.59999999404"
"","EPstroop","65","150157","0.0-8.40-0.40","789","","","STROOPmain","","40","2","1","950.4067282176217","1200","700","0","0","148010.29999999702","148961.79999999702","149751.29999999702"
"","EPstroop","66","152253","0.0-8.41-0.41","669","","","STROOPmain","","41","2","1","715.5222424779586","1200","700","1","0","150459.29999999702","151178.29999999702","151847.69999998808"
"","EPstroop","67","154525","0.0-8.42-0.42","525","","","STROOPmain","","42","1","1","1031.0029257979104","1200","700","1","1","152554.5","153593.79999999702","154118.69999998808"
"","EPstroop","68","156574","0.0-8.43-0.43","340","","","STROOPmain","","43","0","0","993.2359877181029","1200","700","1","1","154827.39999999106","155826.79999999702","156167.29999999702"
"","EPstroop","69","158669","0.0-8.44-0.44","586","","","STROOPmain","","44","1","1","796.3553111699256","1200","700","1","1","156875.59999999404","157676.89999999106","158263.5"
"","EPstroop","70","160813","0.0-8.45-0.45","436","","","STROOPmain","","45","1","0","992.2072047385288","1200","700","0","0","158970.5","159970.09999999404","160406.39999999106"
"","EPstroop","71","163166","0.0-8.46-0.46","821","","","STROOPmain","","46","0","2","817.5226117711765","1200","700","1","0","161115.09999999404","161937.89999999106","162758.39999999106"
"","EPstroop","72","165453","0.0-8.47-0.47","549","","","STROOPmain","","47","1","1","1023.9466785269814","1200","700","1","1","163467.5","164497.69999998808","165047.29999999702"
"","EPstroop","73","167646","0.0-8.48-0.48","389","","","STROOPmain","","48","0","0","1090.976357154685","1200","700","1","1","165754.09999999404","166850.59999999404","167239.39999999106"
"","EPstroop","74","170158","0.0-8.49-0.49","989","","","STROOPmain","","49","1","2","813.505720683409","1200","700","1","0","167947.69999998808","168762.69999998808","169751.59999999404"
"","EPstroop","75","172397","0.0-8.50-0.50","445","","","STROOPmain","","50","0","0","1082.2019707462227","1200","700","1","1","170458.5","171546.39999999106","171991.39999999106"
"","EPstroop","76","174366","0.0-8.51-0.51","485","","","STROOPmain","","51","0","0","769.3030626323816","1200","700","1","1","172698.79999999702","173474.29999999702","173959.59999999404"
"","EPstroop","77","176414","0.0-8.52-0.52","509","","","STROOPmain","","52","2","2","829.3464917756205","1200","700","1","1","174667.39999999106","175498.09999999404","176007.29999999702"
"","EPstroop","78","178493","0.0-8.53-0.53","597","","","STROOPmain","","53","0","1","770.709434864363","1200","700","1","0","176715.39999999106","177489.69999998808","178087.19999998808"
"","EPstroop","79","181069","0.0-8.54-0.54","852","","","STROOPmain","","54","2","0","1013.9071329377573","1200","700","1","0","178795","179810.09999999404","180662.69999998808"
"","EPstroop","80","183581","0.0-8.55-0.55","803","","","STROOPmain","","55","0","2","997.1434763720413","1200","700","0","0","181370.79999999702","182372.59999999404","183175.19999998808"
"","EPstroop","81","185997","0.0-8.56-0.56","733","","","STROOPmain","","56","2","0","972.1910404030812","1200","700","1","0","183883","184858","185591.5"
"","EPstroop","82","188286","0.0-8.57-0.57","661","","","STROOPmain","","57","1","1","917.0502951264725","1200","700","1","1","186298.29999999702","187217.79999999702","187878.69999998808"
"","EPstroop","83","190350","0.0-8.58-0.58","262","","","STROOPmain","","58","2","2","1089.1567166583611","1200","700","1","1","188588","189681.59999999404","189943.5"
"","EPstroop","84","192670","0.0-8.59-0.59","517","","","STROOPmain","","59","0","0","1087.270522906841","1200","700","1","1","190651.29999999702","191746.29999999702","192263.69999998808"
"","EPstroop","85","194621","0.0-8.60-0.60","333","","","STROOPmain","","60","2","2","909.0954085864694","1200","700","1","1","192971.79999999702","193881.79999999702","194215.29999999702"
"","EPstroop","86","197069","0.0-8.61-0.61","725","","","STROOPmain","","61","2","1","1007.2825771998462","1200","700","1","0","194922.89999999106","195938","196663.29999999702"
"","EPstroop","87","199133","0.0-8.62-0.62","549","","","STROOPmain","","62","1","1","801.8011093810087","1200","700","1","1","197371","198177.5","198726.5"
"","EPstroop","88","201373","0.0-8.63-0.63","485","","","STROOPmain","","63","1","1","1039.4553357372702","1200","700","1","1","199435.09999999404","200482.29999999702","200967.39999999106"
"","EPstroop","89","203534","0.0-8.64-0.64","581","","","STROOPmain","","64","0","0","865.0765392472163","1200","700","1","1","201674.19999998808","202546.09999999404","203127.69999998808"
"","EPstroop","90","205821","0.0-8.65-0.65","741","","","STROOPmain","","65","2","2","834.1640422552045","1200","700","1","1","203836","204674.5","205415.39999999106"
"","EPstroop","91","207870","0.0-8.66-0.66","537","","","STROOPmain","","66","0","0","784.6350689082501","1200","700","1","1","206122.89999999106","206925.89999999106","207463.39999999106"
"","EPstroop","92","210078","0.0-8.67-0.67","463","","","STROOPmain","","67","0","1","1036.6736748367634","1200","700","1","0","208171.69999998808","209209.5","209672.69999998808"
"","EPstroop","93","212254","0.0-8.68-0.68","653","","","STROOPmain","","68","1","1","809.4012095288992","1200","700","1","1","210379.5","211193.69999998808","211846.89999999106"
"","EPstroop","94","214477","0.0-8.69-0.69","574","","","STROOPmain","","69","0","0","939.1620651679165","1200","700","1","1","212555.39999999106","213497.79999999702","214071.79999999702"
"","EPstroop","95","216861","0.0-8.70-0.70","573","","","STROOPmain","","70","2","2","1096.5207641606034","1200","700","1","1","214778.29999999702","215882.19999998808","216455.5"
"","EPstroop","96","219469","0.0-8.71-0.71","1173","","","STROOPmain","","71","2","1","723.9572248426691","1200","700","1","0","217162.79999999702","217889.79999999702","219063.39999999106"
"true","fullscreen","97","220477","0.0-9.0","","","","","","","","","","","","","","","",""
"","external-html","98","228563","0.0-10.0","7884","","./STROOP_html/endscreen.html","endscreen","","","","","","","","","","","",""
