"success","trial_type","trial_index","time_elapsed","internal_node_id","rt","keypressed","url","trial_tag","value","tnum","string","color","fixdur","respdelay","feedbackdur","correct","congruent","startTime","displayTime","feedbackTime"
"true","fullscreen","0","1064876","0.0-0.0","","","","","","","","","","","","","","","",""
"","external-html","1","1390700","0.0-1.0-0.0","325568","-1","STROOP_html/welcome1.html","instructions","","","","","","","","","","","",""
"","external-html","2","1398029","0.0-2.0-0.0","7117","-1","STROOP_html/welcome2.html","instructions","","","","","","","","","","","",""
"","call-function","3","1398116","0.0-3.0","","","","","81.59999942779541","","","","","","","","","","",""
"","EPstroop","4","1400761","0.0-4.0-0.0","-1","","","STROOPtrain","","0","0","0","731.5836571534571","1200","700","-1","1","1398453.8999996185","1399187.1999998093","1400395.8999996185"
"","EPstroop","5","1403650","0.0-4.1-0.1","-1","","","STROOPtrain","","0","0","2","973.2161857232895","1200","700","-1","0","1401099.8000001907","1402075.6999998093","1403283.0999994278"
"","EPstroop","6","1406434","0.0-4.2-0.2","-1","","","STROOPtrain","","0","2","2","859.6651011632646","1200","700","-1","1","1403988.8999996185","1404861.6999998093","1406067.8999996185"
"","EPstroop","7","1409058","0.0-4.3-0.3","1050","","","STROOPtrain","","0","0","0","858.7599600544477","1200","700","1","1","1406773.3999996185","1407636","1408689.0999994278"
"","EPstroop","8","1411322","0.0-4.4-0.4","723","","","STROOPtrain","","0","2","2","831.7274734338057","1200","700","1","1","1409397","1410235.1999998093","1410958.0999994278"
"","EPstroop","9","1413658","0.0-4.5-0.5","738","","","STROOPtrain","","0","1","1","892.7444120040707","1200","700","1","1","1411660.5","1412555.3000001907","1413293.6999998093"
"","EPstroop","10","1416250","0.0-4.6-0.6","858","","","STROOPtrain","","0","1","0","1024.6810855101455","1200","700","0","0","1413996.5999994278","1415027.5999994278","1415886.0999994278"
"","EPstroop","11","1418858","0.0-4.7-0.7","896","","","STROOPtrain","","0","0","0","1000.8311487915983","1200","700","1","1","1416587.8999996185","1417596.6999998093","1418493.0999994278"
"","EPstroop","12","1421585","0.0-4.8-0.8","-1","","","STROOPtrain","","0","1","1","808.4756035701052","1200","700","-1","1","1419196.5999994278","1420011.6999998093","1421219.3000001907"
"","EPstroop","13","1424138","0.0-4.9-0.9","885","","","STROOPtrain","","0","1","1","944.815020503815","1200","700","1","1","1421924.3000001907","1422888","1423773.8000001907"
"","EPstroop","14","1426634","0.0-4.10-0.10","946","","","STROOPtrain","","0","2","0","845.6902751694184","1200","700","1","0","1424476.5","1425323.6999998093","1426270"
"","EPstroop","15","1428970","0.0-4.11-0.11","833","","","STROOPtrain","","0","0","0","791.4602747384438","1200","700","1","1","1426972.8999996185","1427771.8999996185","1428605.1999998093"
"","EPstroop","16","1431178","0.0-4.12-0.12","530","","","STROOPtrain","","0","2","2","971.6670890170483","1200","700","1","1","1429308.8000001907","1430283.3000001907","1430812.8000001907"
"","EPstroop","17","1433850","0.0-4.13-0.13","993","","","STROOPtrain","","0","1","2","968.9909568886138","1200","700","1","0","1431517.3000001907","1432492.3000001907","1433485.6999998093"
"","EPstroop","18","1436329","0.0-4.14-0.14","1010","","","STROOPtrain","","0","1","1","760.9714580692681","1200","700","1","1","1434189.3999996185","1434955.3000001907","1435965.5999994278"
"","EPstroop","19","1438746","0.0-4.15-0.15","873","","","STROOPtrain","","0","2","2","839.9198447694971","1200","700","1","1","1436667.5","1437508.5999994278","1438381.8999996185"
"","EPstroop","20","1441545","0.0-4.16-0.16","1138","","","STROOPtrain","","0","0","1","956.2127525803504","1200","700","1","0","1439084.6999998093","1440043.0999994278","1441180.8999996185"
"","EPstroop","21","1443883","0.0-4.17-0.17","898","","","STROOPtrain","","0","2","1","728.9655165720286","1200","700","1","0","1441884.3999996185","1442620.0999994278","1443517.8000001907"
"","external-html","22","1451580","0.0-5.0-0.0","7622","-1","STROOP_html/welcome3.html","instructions","","","","","","","","","","","",""
"","call-function","23","1451644","0.0-6.0","","","","","61.89999961853027","","","","","","","","","","",""
"","call-function","24","1451700","0.0-7.0","","","","","56.60000038146973","","","","","","","","","","",""
"","EPstroop","25","1454563","0.0-8.0-0.0","-1","","","STROOPmain","","0","1","2","947.1308796389295","1200","700","-1","0","1452038.1999998093","1452988.8000001907","1454195.3000001907"
"","EPstroop","26","1456931","0.0-8.1-0.1","746","","","STROOPmain","","1","0","0","909.8869820969353","1200","700","1","1","1454900.1999998093","1455812","1456563"
"","EPstroop","27","1459451","0.0-8.2-0.2","977","","","STROOPmain","","2","1","1","838.9324785331632","1200","700","1","1","1457268.0999994278","1458107.8000001907","1459084.8999996185"
"","EPstroop","28","1462075","0.0-8.3-0.3","1105","","","STROOPmain","","3","2","0","812.5309748081604","1200","700","1","0","1459787.5","1460603.5","1461708.6999998093"
"","EPstroop","29","1464731","0.0-8.4-0.4","890","","","STROOPmain","","4","1","1","1058.6968879210308","1200","700","1","1","1462412.5999994278","1463475.1999998093","1464364.8999996185"
"","EPstroop","30","1467067","0.0-8.5-0.5","913","","","STROOPmain","","5","2","0","711.3987287260481","1200","700","1","0","1465067.8999996185","1465788","1466700.5999994278"
"","EPstroop","31","1469579","0.0-8.6-0.6","762","","","STROOPmain","","6","0","0","1045.5642342467277","1200","700","1","1","1467404.3999996185","1468451.6999998093","1469214"
"","EPstroop","32","1471947","0.0-8.7-0.7","657","","","STROOPmain","","7","2","2","1005.375008484697","1200","700","1","1","1469916.8999996185","1470924.6999998093","1471581.6999998093"
"","EPstroop","33","1474140","0.0-8.8-0.8","754","","","STROOPmain","","8","2","2","734.4179169031953","1200","700","1","1","1472284.3999996185","1473019.3999996185","1473773.8999996185"
"","EPstroop","34","1476363","0.0-8.9-0.9","746","","","STROOPmain","","9","1","1","767.0943259316043","1200","700","1","1","1474477.5999994278","1475251.3000001907","1475997.1999998093"
"","EPstroop","35","1479187","0.0-8.10-0.10","-1","","","STROOPmain","","10","0","2","909.3795170942511","1200","700","-1","0","1476700.1999998093","1477611.5999994278","1478820.5"
"","EPstroop","36","1481643","0.0-8.11-0.11","745","","","STROOPmain","","11","2","2","999.1706407689405","1200","700","1","1","1479524.3000001907","1480532","1481277"
"","EPstroop","37","1483883","0.0-8.12-0.12","786","","","STROOPmain","","12","0","2","743.6207358859449","1200","700","1","0","1481980.5999994278","1482731.3999996185","1483518"
"","EPstroop","38","1486251","0.0-8.13-0.13","714","","","STROOPmain","","13","0","0","947.2499003051391","1200","700","1","1","1484221","1485171.5999994278","1485886.1999998093"
"","EPstroop","39","1488427","0.0-8.14-0.14","642","","","STROOPmain","","14","0","0","830.5096071805034","1200","700","1","1","1486588.5","1487419.3000001907","1488061"
"","EPstroop","40","1490763","0.0-8.15-0.15","626","","","STROOPmain","","15","1","1","1004.6941307800269","1200","700","1","1","1488764.5","1489771.1999998093","1490396.8999996185"
"","EPstroop","41","1492956","0.0-8.16-0.16","634","","","STROOPmain","","16","1","1","854.1160080856176","1200","700","1","1","1491100.3000001907","1491955.6999998093","1492589.8999996185"
"","EPstroop","42","1495531","0.0-8.17-0.17","994","","","STROOPmain","","17","1","2","876.5839488482713","1200","700","0","0","1493293.6999998093","1494171.8999996185","1495165.5"
"","EPstroop","43","1497931","0.0-8.18-0.18","785","","","STROOPmain","","18","1","1","904.22323068067","1200","700","1","1","1495868.5","1496780.1999998093","1497565.5999994278"
"","EPstroop","44","1500123","0.0-8.19-0.19","642","","","STROOPmain","","19","1","1","843.850896747811","1200","700","1","1","1498268.6999998093","1499115.8000001907","1499757.5"
"","EPstroop","45","1502252","0.0-8.20-0.20","570","","","STROOPmain","","20","0","0","853.2874200145545","1200","700","1","1","1500460.3999996185","1501315.3999996185","1501885.8000001907"
"","EPstroop","46","1504571","0.0-8.21-0.21","801","","","STROOPmain","","21","0","0","806.8744410617295","1200","700","1","1","1502589.0999994278","1503403.6999998093","1504204.5999994278"
"","EPstroop","47","1507467","0.0-8.22-0.22","1123","","","STROOPmain","","22","2","2","1068.2821180319197","1200","700","1","1","1504908.3000001907","1505979","1507101.8000001907"
"","EPstroop","48","1510203","0.0-8.23-0.23","-1","","","STROOPmain","","23","2","1","814.9892759062636","1200","700","-1","0","1507804.6999998093","1508634.3999996185","1509835.3000001907"
"","EPstroop","49","1512411","0.0-8.24-0.24","705","","","STROOPmain","","24","2","1","799.2489154684347","1200","700","1","0","1510539.5999994278","1511339.3000001907","1512044.8000001907"
"","EPstroop","50","1514774","0.0-8.25-0.25","882","","","STROOPmain","","25","1","0","762.1797237258628","1200","700","1","0","1512747.5999994278","1513515.1999998093","1514397.8000001907"
"","EPstroop","51","1517372","0.0-8.26-0.26","834","","","STROOPmain","","26","2","2","1052.7625548739884","1200","700","1","1","1515111.0999994278","1516171.8000001907","1517005.8999996185"
"","EPstroop","52","1519612","0.0-8.27-0.27","721","","","STROOPmain","","27","0","0","812.7902295680242","1200","700","1","1","1517708.3999996185","1518523.3000001907","1519244.5"
"","EPstroop","53","1522028","0.0-8.28-0.28","617","","","STROOPmain","","28","1","1","1088.9245184153897","1200","700","1","1","1519948.5999994278","1521044.3000001907","1521662.0999994278"
"","EPstroop","54","1524852","0.0-8.29-0.29","-1","","","STROOPmain","","29","1","0","905.4561711347603","1200","700","-1","0","1522364.8000001907","1523275.3999996185","1524484.0999994278"
"","EPstroop","55","1527227","0.0-8.30-0.30","761","","","STROOPmain","","30","2","2","903.8054931878515","1200","700","1","1","1525189.0999994278","1526100.5999994278","1526861.6999998093"
"","EPstroop","56","1529372","0.0-8.31-0.31","627","","","STROOPmain","","31","0","1","811.1402642358078","1200","700","1","0","1527564.3000001907","1528379","1529005.8000001907"
"","EPstroop","57","1531708","0.0-8.32-0.32","842","","","STROOPmain","","32","0","2","785.7060409298019","1200","700","1","0","1529708.1999998093","1530499.5","1531341.6999998093"
"","EPstroop","58","1533915","0.0-8.33-0.33","746","","","STROOPmain","","33","0","0","755.5967007646507","1200","700","1","1","1532044","1532803.5999994278","1533550"
"","EPstroop","59","1536523","0.0-8.34-0.34","979","","","STROOPmain","","34","2","2","921.0623547814658","1200","700","1","1","1534251.6999998093","1535179.5","1536158.1999998093"
"","EPstroop","60","1538876","0.0-8.35-0.35","715","","","STROOPmain","","35","0","1","935.7238874213939","1200","700","1","0","1536859.5","1537795","1538509.8000001907"
"","EPstroop","61","1541660","0.0-8.36-0.36","1082","","","STROOPmain","","36","1","2","993.0165589088685","1200","700","1","0","1539213","1540211.1999998093","1541293.8000001907"
"","EPstroop","62","1544459","0.0-8.37-0.37","-1","","","STROOPmain","","37","2","1","885.9767128456468","1200","700","-1","0","1541996.5999994278","1542883.3000001907","1544091.6999998093"
"","EPstroop","63","1546796","0.0-8.38-0.38","707","","","STROOPmain","","38","2","2","926.9871886385176","1200","700","1","1","1544796.1999998093","1545722.8999996185","1546429.8000001907"
"","EPstroop","64","1549003","0.0-8.39-0.39","617","","","STROOPmain","","39","0","0","885.4285986970926","1200","700","1","1","1547132.8000001907","1548020.5","1548637.8000001907"
"","EPstroop","65","1551547","0.0-8.40-0.40","801","","","STROOPmain","","40","2","2","1038.9780162101033","1200","700","1","1","1549340.3000001907","1550379.6999998093","1551180.8000001907"
"","EPstroop","66","1554483","0.0-8.41-0.41","-1","","","STROOPmain","","41","0","1","1020.9819978476403","1200","700","-1","0","1551883.5","1552910.6999998093","1554115.3999996185"
"","EPstroop","67","1556859","0.0-8.42-0.42","610","","","STROOPmain","","42","0","0","1057.8855008966673","1200","700","1","1","1554820.1999998093","1555884","1556494"
"","EPstroop","68","1559180","0.0-8.43-0.43","577","","","STROOPmain","","43","1","1","1035.8540532324776","1200","700","1","1","1557196.3000001907","1558235.8000001907","1558813"
"","EPstroop","69","1561804","0.0-8.44-0.44","841","","","STROOPmain","","44","1","2","1075.1901037806258","1200","700","1","0","1559516.6999998093","1560596","1561437"
"","EPstroop","70","1564131","0.0-8.45-0.45","642","","","STROOPmain","","45","1","1","971.7091819341935","1200","700","1","1","1562140.8999996185","1563115.5999994278","1563757.5"
"","EPstroop","71","1566523","0.0-8.46-0.46","593","","","STROOPmain","","46","1","1","1094.1436591992015","1200","700","1","1","1564467.3999996185","1565564.3000001907","1566157.8000001907"
"","EPstroop","72","1568700","0.0-8.47-0.47","593","","","STROOPmain","","47","2","2","872.0425247679963","1200","700","1","1","1566860.0999994278","1567740.5","1568333"
"","EPstroop","73","1570732","0.0-8.48-0.48","594","","","STROOPmain","","48","2","0","732.1241629924685","1200","700","1","0","1569036.8999996185","1569771.6999998093","1570365.8000001907"
"","EPstroop","74","1573052","0.0-8.49-0.49","642","","","STROOPmain","","49","1","1","970.6501885572992","1200","700","1","1","1571068.3999996185","1572043.3000001907","1572685.6999998093"
"","EPstroop","75","1575341","0.0-8.50-0.50","744","","","STROOPmain","","50","0","0","831.4396347204124","1200","700","1","1","1573388.0999994278","1574229.3000001907","1574973.8000001907"
"","EPstroop","76","1577709","0.0-8.51-0.51","881","","","STROOPmain","","51","1","1","778.4920593870008","1200","700","1","1","1575676.8999996185","1576460.0999994278","1577341.6999998093"
"","EPstroop","77","1580077","0.0-8.52-0.52","737","","","STROOPmain","","52","0","0","919.7794874283616","1200","700","1","1","1578043.8999996185","1578971.3000001907","1579708.6999998093"
"","EPstroop","78","1582301","0.0-8.53-0.53","754","","","STROOPmain","","53","2","2","765.649394055913","1200","700","1","1","1580412.6999998093","1581179.8000001907","1581933.6999998093"
"","EPstroop","79","1584684","0.0-8.54-0.54","721","","","STROOPmain","","54","0","0","953.0674471269483","1200","700","1","1","1582636.5999994278","1583595.8999996185","1584317"
"","EPstroop","80","1587117","0.0-8.55-0.55","762","","","STROOPmain","","55","2","1","964.6284644794454","1200","700","1","0","1585020","1585987.0999994278","1586748.8000001907"
"","EPstroop","81","1589404","0.0-8.56-0.56","608","","","STROOPmain","","56","2","2","970.8721469983102","1200","700","1","1","1587452.6999998093","1588428.1999998093","1589036.6999998093"
"","EPstroop","82","1591646","0.0-8.57-0.57","570","","","STROOPmain","","57","1","1","963.2261597449101","1200","700","1","1","1589739.5999994278","1590707.6999998093","1591278"
"","EPstroop","83","1594046","0.0-8.58-0.58","714","","","STROOPmain","","58","1","1","975.9571890707598","1200","700","1","1","1591982","1592963.3000001907","1593677.8000001907"
"","EPstroop","84","1596605","0.0-8.59-0.59","922","","","STROOPmain","","59","0","1","926.082207329027","1200","700","1","0","1594381.5","1595315.5999994278","1596237.8999996185"
"","EPstroop","85","1599133","0.0-8.60-0.60","898","","","STROOPmain","","60","0","2","920.5522382710428","1200","700","1","0","1596940","1597867.1999998093","1598765.6999998093"
"","EPstroop","86","1601373","0.0-8.61-0.61","705","","","STROOPmain","","61","2","2","826.4596129717638","1200","700","1","1","1599468.3999996185","1600300.1999998093","1601005.5999994278"
"","EPstroop","87","1603613","0.0-8.62-0.62","625","","","STROOPmain","","62","2","2","904.3139634732186","1200","700","1","1","1601708.3000001907","1602621","1603246.1999998093"
"","EPstroop","88","1605964","0.0-8.63-0.63","906","","","STROOPmain","","63","0","0","739.1784569710537","1200","700","1","1","1603949.0999994278","1604691.3999996185","1605597.8999996185"
"","EPstroop","89","1608126","0.0-8.64-0.64","641","","","STROOPmain","","64","0","0","810.5022365989995","1200","700","1","1","1606300.3000001907","1607116","1607757.3000001907"
"","EPstroop","90","1610366","0.0-8.65-0.65","561","","","STROOPmain","","65","1","0","968.5317971672703","1200","700","1","0","1608461.8000001907","1609435.5999994278","1609996.5999994278"
"","EPstroop","91","1612780","0.0-8.66-0.66","761","","","STROOPmain","","66","2","2","949.3530964383472","1200","700","1","1","1610700.5999994278","1611651.5","1612412.8999996185"
"","EPstroop","92","1615086","0.0-8.67-0.67","714","","","STROOPmain","","67","0","0","884.0164306685651","1200","700","1","1","1613115.6999998093","1614003","1614717"
"","EPstroop","93","1617756","0.0-8.68-0.68","922","","","STROOPmain","","68","2","0","1038.3501147563925","1200","700","1","0","1615421.8000001907","1616468","1617389.8000001907"
"","EPstroop","94","1620125","0.0-8.69-0.69","674","","","STROOPmain","","69","2","2","989.2574824987046","1200","700","1","1","1618091.5","1619083.5999994278","1619757.5999994278"
"","EPstroop","95","1622701","0.0-8.70-0.70","969","","","STROOPmain","","70","1","0","902.9727400189796","1200","700","1","0","1620460.3999996185","1621363.5","1622332.6999998093"
"","EPstroop","96","1625020","0.0-8.71-0.71","843","","","STROOPmain","","71","1","1","768.9576187832461","1200","700","1","1","1623036","1623811","1624653.8999996185"
"true","fullscreen","97","1626028","0.0-9.0","","","","","","","","","","","","","","","",""
"","external-html","98","1639839","0.0-10.0","13600","","./STROOP_html/endscreen.html","endscreen","","","","","","","","","","","",""
