"success","trial_type","trial_index","time_elapsed","internal_node_id","rt","keypressed","url","trial_tag","value","tnum","string","color","fixdur","respdelay","feedbackdur","correct","congruent","startTime","displayTime","feedbackTime"
"true","fullscreen","0","24992","0.0-0.0","","","","","","","","","","","","","","","",""
"","external-html","1","32194","0.0-1.0-0.0","7080","-1","STROOP_html/welcome1.html","instructions","","","","","","","","","","","",""
"","external-html","2","36532","0.0-2.0-0.0","4247","-1","STROOP_html/welcome2.html","instructions","","","","","","","","","","","",""
"","call-function","3","36718","0.0-3.0","","","","","181.90000000037253","","","","","","","","","","",""
"","EPstroop","4","39540","0.0-4.0-0.0","1070","","","STROOPtrain","","0","1","1","1042.3744179656442","1200","700","1","1","37954.20000000112","39000.300000000745","40070.90000000037"
"","EPstroop","5","41668","0.0-4.1-0.1","550","","","STROOPtrain","","0","2","2","865.4796884782863","1200","700","1","1","40777.5","41648.20000000112","42198.5"
"","EPstroop","6","44229","0.0-4.2-0.2","835","","","STROOPtrain","","0","0","0","1007.6950770062164","1200","700","1","1","42904.70000000112","43922.40000000037","44757.70000000112"
"","EPstroop","7","46693","0.0-4.3-0.3","869","","","STROOPtrain","","0","0","1","885.9641004361005","1200","700","0","0","45465.40000000037","46352.20000000112","47221.20000000112"
"","EPstroop","8","49029","0.0-4.4-0.4","661","","","STROOPtrain","","0","1","1","959.1959994362145","1200","700","1","1","47928.90000000037","48896.300000000745","49557.20000000112"
"","EPstroop","9","51525","0.0-4.5-0.5","1045","","","STROOPtrain","","0","0","0","735.4502089952555","1200","700","1","1","50265.09999999963","51008","52053.300000000745"
"","EPstroop","10","54308","0.0-4.6-0.6","1054","","","STROOPtrain","","0","1","1","1017.3156962321541","1200","700","0","1","52761.20000000112","53783.5","54837.59999999963"
"","EPstroop","11","56772","0.0-4.7-0.7","725","","","STROOPtrain","","0","1","1","1023.7864052152353","1200","700","0","1","55544.09999999963","56576.09999999963","57301.40000000037"
"","EPstroop","12","58869","0.0-4.8-0.8","509","","","STROOPtrain","","0","0","0","876.8020847895289","1200","700","0","1","58009","58887.800000000745","59397.20000000112"
"","EPstroop","13","60981","0.0-4.9-0.9","693","","","STROOPtrain","","0","2","0","704.1316860783656","1200","700","1","0","60104.59999999963","60816.300000000745","61509.300000000745"
"","EPstroop","14","63897","0.0-4.10-0.10","-1","","","STROOPtrain","","0","2","1","978.9256455382083","1200","700","-1","0","62216.800000000745","63199.59999999963","64415.300000000745"
"","EPstroop","15","66596","0.0-4.11-0.11","-1","","","STROOPtrain","","0","2","2","780.6773907546522","1200","700","-1","1","65132.59999999963","65920.40000000037","67127.09999999963"
"","EPstroop","16","69356","0.0-4.12-0.12","-1","","","STROOPtrain","","0","0","2","843.8129360169501","1200","700","-1","0","67832.90000000037","68681","69888"
"","EPstroop","17","71812","0.0-4.13-0.13","711","","","STROOPtrain","","0","0","0","1033.9811671693897","1200","700","1","1","70593","71631.40000000037","72342.30000000075"
"","EPstroop","18","74419","0.0-4.14-0.14","805","","","STROOPtrain","","0","1","0","1073.9637089684177","1200","700","1","0","73049.09999999963","74127.90000000037","74933.30000000075"
"","EPstroop","19","77260","0.0-4.15-0.15","-1","","","STROOPtrain","","0","1","2","920.1310020020674","1200","700","-1","0","75655","76583.59999999963","77792"
"","EPstroop","20","79876","0.0-4.16-0.16","863","","","STROOPtrain","","0","2","2","1042.4304829121274","1200","700","1","1","78497.09999999963","79543.80000000075","80406.5"
"","EPstroop","21","82036","0.0-4.17-0.17","662","","","STROOPtrain","","0","2","2","788.3893697202923","1200","700","1","1","81113.09999999963","81904.09999999963","82566.20000000112"
"","external-html","22","89987","0.0-5.0-0.0","7389","-1","STROOP_html/welcome3.html","instructions","","","","","","","","","","","",""
"","call-function","23","90046","0.0-6.0","","","","","54.5","","","","","","","","","","",""
"","call-function","24","90208","0.0-7.0","","","","","161.2999999988824","","","","","","","","","","",""
"","EPstroop","25","92805","0.0-8.0-0.0","790","","","STROOPmain","","0","2","1","1090.33647075317","1200","700","0","0","91448.59999999963","92544","93334.30000000075"
"","EPstroop","26","95526","0.0-8.1-0.1","1159","","","STROOPmain","","1","1","2","850.4197420593562","1200","700","0","0","94041.80000000075","94895.70000000112","96054.20000000112"
"","EPstroop","27","97924","0.0-8.2-0.2","893","","","STROOPmain","","2","1","1","791.2985153455647","1200","700","1","1","96762.5","97560.70000000112","98456"
"","EPstroop","28","100180","0.0-8.3-0.3","678","","","STROOPmain","","3","0","0","868.868980971318","1200","700","1","1","99160.90000000037","100031.59999999963","100709.70000000112"
"","EPstroop","29","102818","0.0-8.4-0.4","911","","","STROOPmain","","4","0","0","999.5118576662487","1200","700","1","1","101417","102423.70000000112","103334.90000000037"
"","EPstroop","30","105268","0.0-8.5-0.5","717","","","STROOPmain","","5","1","1","1012.7015165068498","1200","700","0","1","104054.09999999963","105081.59999999963","105798.20000000112"
"","EPstroop","31","107956","0.0-8.6-0.6","-1","","","STROOPmain","","6","2","0","773.445193574641","1200","700","-1","0","106504.5","107280.40000000037","108488.59999999963"
"","EPstroop","32","110804","0.0-8.7-0.7","-1","","","STROOPmain","","7","0","0","927.9111130139481","1200","700","-1","1","109193","110127.20000000112","111335.5"
"","EPstroop","33","113468","0.0-8.8-0.8","-1","","","STROOPmain","","8","0","0","749.8141112245387","1200","700","-1","1","112041.09999999963","112791.40000000037","113999.59999999963"
"","EPstroop","34","115859","0.0-8.9-0.9","805","","","STROOPmain","","9","1","1","874.7377339577708","1200","700","1","1","114705.09999999963","115584.09999999963","116389.40000000037"
"","EPstroop","35","118372","0.0-8.10-0.10","759","","","STROOPmain","","10","0","0","1044.4742523614816","1200","700","1","1","117096.59999999963","118143.40000000037","118902.5"
"","EPstroop","36","120708","0.0-8.11-0.11","734","","","STROOPmain","","11","2","1","888.1095788908423","1200","700","0","0","119609.30000000075","120504","121238.30000000075"
"","EPstroop","37","123124","0.0-8.12-0.12","670","","","STROOPmain","","12","2","2","1037.7722971561302","1200","700","1","1","121944.70000000112","122983.80000000075","123654.5"
"","EPstroop","38","125492","0.0-8.13-0.13","766","","","STROOPmain","","13","0","1","890.82068697252","1200","700","0","0","124360.5","125255.70000000112","126022.20000000112"
"","EPstroop","39","127747","0.0-8.14-0.14","623","","","STROOPmain","","14","1","1","923.865946623073","1200","700","1","1","126729","127655.90000000037","128278.90000000037"
"","EPstroop","40","130099","0.0-8.15-0.15","598","","","STROOPmain","","15","1","1","1041.514262551178","1200","700","1","1","128984.70000000112","130031.70000000112","130630.5"
"","EPstroop","41","132452","0.0-8.16-0.16","726","","","STROOPmain","","16","0","0","916.4943634254239","1200","700","1","1","131336.59999999963","132255.70000000112","132982.40000000037"
"","EPstroop","42","134788","0.0-8.17-0.17","550","","","STROOPmain","","17","0","0","1072.8682396448185","1200","700","1","1","133689.09999999963","134768.09999999963","135318.40000000037"
"","EPstroop","43","137628","0.0-8.18-0.18","-1","","","STROOPmain","","18","0","2","920.753522476773","1200","700","-1","0","136025.20000000112","136952.70000000112","138160.20000000112"
"","EPstroop","44","140619","0.0-8.19-0.19","-1","","","STROOPmain","","19","1","0","1074.7532159773386","1200","700","-1","0","138865.20000000112","139943.70000000112","141151.09999999963"
"","EPstroop","45","143251","0.0-8.20-0.20","-1","","","STROOPmain","","20","1","1","712.7257586777355","1200","700","-1","1","141855.59999999963","142576.30000000075","143783.80000000075"
"","EPstroop","46","146147","0.0-8.21-0.21","1197","","","STROOPmain","","21","2","0","991.0083945475417","1200","700","0","0","144487.59999999963","145481","146678.5"
"","EPstroop","47","148788","0.0-8.22-0.22","910","","","STROOPmain","","22","0","1","1020.8697079224248","1200","700","1","0","147384.5","148408.09999999963","149318.40000000037"
"","EPstroop","48","150932","0.0-8.23-0.23","670","","","STROOPmain","","23","2","2","765.9990484541864","1200","700","1","1","150025.09999999963","150791.70000000112","151462.40000000037"
"","EPstroop","49","153220","0.0-8.24-0.24","606","","","STROOPmain","","24","0","0","972.4743025408355","1200","700","1","1","152169.30000000075","153144.09999999963","153750.5"
"","EPstroop","50","155220","0.0-8.25-0.25","582","","","STROOPmain","","25","1","1","706.8961859148804","1200","700","1","1","154457.09999999963","155167.80000000075","155750.40000000037"
"","EPstroop","51","157828","0.0-8.26-0.26","838","","","STROOPmain","","26","0","2","1057.397475599811","1200","700","1","0","156457","157520","158358.59999999963"
"","EPstroop","52","160548","0.0-8.27-0.27","-1","","","STROOPmain","","27","1","0","804.2679612400563","1200","700","-1","0","159065","159871.40000000037","161079.90000000037"
"","EPstroop","53","163347","0.0-8.28-0.28","1031","","","STROOPmain","","28","2","2","1058.5364467359236","1200","700","1","1","161784.90000000037","162847.80000000075","163878.5"
"","EPstroop","54","165748","0.0-8.29-0.29","703","","","STROOPmain","","29","2","2","985.8671220441131","1200","700","1","1","164583.80000000075","165575.80000000075","166278.59999999963"
"","EPstroop","55","167989","0.0-8.30-0.30","711","","","STROOPmain","","30","0","0","808.1659359356461","1200","700","0","1","166984.90000000037","167807.70000000112","168518.5"
"","EPstroop","56","170692","0.0-8.31-0.31","-1","","","STROOPmain","","31","2","2","787.2343905456161","1200","700","-1","1","169224.5","170015.59999999963","171223.09999999963"
"","EPstroop","57","173661","0.0-8.32-0.32","-1","","","STROOPmain","","32","0","0","1054.9279484510862","1200","700","-1","1","171928.59999999963","172983.80000000075","174191.5"
"","EPstroop","58","176453","0.0-8.33-0.33","-1","","","STROOPmain","","33","1","0","874.5864740218497","1200","700","-1","0","174897.20000000112","175776.09999999963","176983.90000000037"
"","EPstroop","59","179132","0.0-8.34-0.34","-1","","","STROOPmain","","34","2","0","762.2718653186988","1200","700","-1","0","177688.59999999963","178456.20000000112","179663.30000000075"
"","EPstroop","60","181653","0.0-8.35-0.35","911","","","STROOPmain","","35","2","0","902.6129144786794","1200","700","0","0","180368.5","181271.70000000112","182182.40000000037"
"","EPstroop","61","184468","0.0-8.36-0.36","-1","","","STROOPmain","","36","1","2","895.0469901106158","1200","700","-1","0","182888.90000000037","183792","184999.40000000037"
"","EPstroop","62","187076","0.0-8.37-0.37","1182","","","STROOPmain","","37","1","2","713.7314300415522","1200","700","1","0","185704.59999999963","186423.90000000037","187606.5"
"","EPstroop","63","189764","0.0-8.38-0.38","1030","","","STROOPmain","","38","1","1","943.7201469952001","1200","700","1","1","188312.40000000037","189263.90000000037","190293.5"
"","EPstroop","64","192229","0.0-8.39-0.39","663","","","STROOPmain","","39","2","2","1090.208931739674","1200","700","1","1","191000.40000000037","192095.40000000037","192758.70000000112"
"","EPstroop","65","195180","0.0-8.40-0.40","-1","","","STROOPmain","","40","0","2","1033.150325616337","1200","700","-1","0","193465","194504.20000000112","195712"
"","EPstroop","66","197284","0.0-8.41-0.41","566","","","STROOPmain","","41","2","2","830.8098553181287","1200","700","1","1","196416.80000000075","197247.30000000075","197813.5"
"","EPstroop","67","199446","0.0-8.42-0.42","582","","","STROOPmain","","42","2","2","869.0577467340149","1200","700","1","1","198520.20000000112","199391.5","199974.40000000037"
"","EPstroop","68","201989","0.0-8.43-0.43","854","","","STROOPmain","","43","1","1","979.3704296066492","1200","700","1","1","200682.30000000075","201664.30000000075","202518.40000000037"
"","EPstroop","69","204405","0.0-8.44-0.44","919","","","STROOPmain","","44","0","0","784.1394385609825","1200","700","1","1","203225.20000000112","204015.59999999963","204934.80000000075"
"","EPstroop","70","206948","0.0-8.45-0.45","767","","","STROOPmain","","45","2","2","1064.310523539858","1200","700","1","1","205641.09999999963","206711.5","207478.5"
"","EPstroop","71","209492","0.0-8.46-0.46","863","","","STROOPmain","","46","0","0","972.743437159726","1200","700","1","1","208184.90000000037","209159.40000000037","210022.40000000037"
"","EPstroop","72","211765","0.0-8.47-0.47","766","","","STROOPmain","","47","2","2","794.0695039131731","1200","700","1","1","210729","211527.70000000112","212294.20000000112"
"","EPstroop","73","214212","0.0-8.48-0.48","710","","","STROOPmain","","48","1","1","1024.6486837947768","1200","700","1","1","213001.5","214031.80000000075","214741.59999999963"
"","EPstroop","74","216709","0.0-8.49-0.49","791","","","STROOPmain","","49","1","1","995.9520009539776","1200","700","1","1","215448.30000000075","216447.70000000112","217238.70000000112"
"","EPstroop","75","218868","0.0-8.50-0.50","655","","","STROOPmain","","50","1","1","796.9787263765788","1200","700","1","1","217945.40000000037","218743.70000000112","219398.59999999963"
"","EPstroop","76","221189","0.0-8.51-0.51","854","","","STROOPmain","","51","2","2","752.3234669154275","1200","700","1","1","220104.70000000112","220864.80000000075","221718.5"
"","EPstroop","77","223804","0.0-8.52-0.52","-1","","","STROOPmain","","52","2","2","700.8709966924708","1200","700","-1","1","222425.20000000112","223128.09999999963","224335.90000000037"
"","EPstroop","78","226700","0.0-8.53-0.53","-1","","","STROOPmain","","53","1","1","964.8789183176932","1200","700","-1","1","225040","226007.40000000037","227229.59999999963"
"","EPstroop","79","229368","0.0-8.54-0.54","-1","","","STROOPmain","","54","2","1","756.7663456078509","1200","700","-1","0","227936.90000000037","228694.59999999963","229895.80000000075"
"","EPstroop","80","232020","0.0-8.55-0.55","-1","","","STROOPmain","","55","1","1","732.5791643996861","1200","700","-1","1","230604.80000000075","231344.20000000112","232551.59999999963"
"","EPstroop","81","234180","0.0-8.56-0.56","526","","","STROOPmain","","56","2","2","926.1628449339729","1200","700","1","1","233256.70000000112","234184","234710.5"
"","EPstroop","82","236757","0.0-8.57-0.57","1111","","","STROOPmain","","57","0","1","751.3356038819016","1200","700","1","0","235416.5","236175.09999999963","237286.5"
"","EPstroop","83","239348","0.0-8.58-0.58","790","","","STROOPmain","","58","2","2","1092.4547335713403","1200","700","1","1","237993.40000000037","239088.5","239878.40000000037"
"","EPstroop","84","241732","0.0-8.59-0.59","710","","","STROOPmain","","59","0","0","963.0912519188569","1200","700","1","1","240583.90000000037","241551.80000000075","242262.40000000037"
"","EPstroop","85","244309","0.0-8.60-0.60","902","","","STROOPmain","","60","2","2","963.6991015746675","1200","700","1","1","242968.59999999963","243936.30000000075","244838.80000000075"
"","EPstroop","86","246629","0.0-8.61-0.61","661","","","STROOPmain","","61","0","0","942.3697761678065","1200","700","1","1","245544.90000000037","246495.90000000037","247157.30000000075"
"","EPstroop","87","249204","0.0-8.62-0.62","1167","","","STROOPmain","","62","0","2","701.3745403328511","1200","700","1","0","247865.20000000112","248567.80000000075","249734.5"
"","EPstroop","88","252196","0.0-8.63-0.63","1182","","","STROOPmain","","63","1","0","1097.6828287304625","1200","700","0","0","250440.5","251543.70000000112","252725.90000000037"
"","EPstroop","89","254500","0.0-8.64-0.64","815","","","STROOPmain","","64","1","2","781.187667989321","1200","700","0","0","253432.90000000037","254215.40000000037","255030.59999999963"
"","EPstroop","90","256884","0.0-8.65-0.65","894","","","STROOPmain","","65","2","2","780.235767021185","1200","700","1","1","255736.30000000075","256519.59999999963","257413.59999999963"
"","EPstroop","91","259125","0.0-8.66-0.66","622","","","STROOPmain","","66","0","0","908.4537755269002","1200","700","1","1","258120.70000000112","259032.5","259654.40000000037"
"","EPstroop","92","261765","0.0-8.67-0.67","-1","","","STROOPmain","","67","0","1","724.4317400403722","1200","700","-1","0","260361.59999999963","261088.20000000112","262295.9000000004"
"","EPstroop","93","263926","0.0-8.68-0.68","638","","","STROOPmain","","68","1","1","807.091465268185","1200","700","1","1","263001","263815.5","264453.4000000004"
"","EPstroop","94","266164","0.0-8.69-0.69","686","","","STROOPmain","","69","1","1","839.0650783050241","1200","700","1","1","265162.0999999996","266008.30000000075","266694.80000000075"
"","EPstroop","95","268532","0.0-8.70-0.70","646","","","STROOPmain","","70","0","0","1009.3305037248082","1200","700","1","1","267400.30000000075","268416.2000000011","269062.4000000004"
"","EPstroop","96","271348","0.0-8.71-0.71","1079","","","STROOPmain","","71","2","1","1027.9910231144504","1200","700","1","0","269768.9000000004","270799.5","271878.4000000004"
"true","fullscreen","97","272356","0.0-9.0","","","","","","","","","","","","","","","",""
"","external-html","98","20736776","0.0-10.0","20463183","","./STROOP_html/endscreen.html","endscreen","","","","","","","","","","","",""
