"success","trial_type","trial_index","time_elapsed","internal_node_id","rt","keypressed","url","trial_tag","value","tnum","string","color","fixdur","respdelay","feedbackdur","correct","congruent","startTime","displayTime","feedbackTime"
"true","fullscreen","0","28053","0.0-0.0","","","","","","","","","","","","","","","",""
"","external-html","1","65984","0.0-1.0-0.0","37851","-1","STROOP_html/welcome1.html","instructions","","","","","","","","","","","",""
"","external-html","2","71373","0.0-2.0-0.0","5287","-1","STROOP_html/welcome2.html","instructions","","","","","","","","","","","",""
"","call-function","3","71448","0.0-3.0","","","","","69.5","","","","","","","","","","",""
"","EPstroop","4","73341","0.0-4.0-0.0","463","","","STROOPtrain","","0","1","1","721.8225099661305","1200","700","1","1","71835.40000000037","72560.40000000037","73023.60000000149"
"","EPstroop","5","75212","0.0-4.1-0.1","414","","","STROOPtrain","","0","0","0","741.9989645228515","1200","700","1","1","73730.30000000075","74480.30000000075","74894.30000000075"
"","EPstroop","6","77501","0.0-4.2-0.2","558","","","STROOPtrain","","0","1","0","1016.78413705347","1200","700","1","0","75600.20000000112","76624.60000000149","77182.40000000037"
"","EPstroop","7","79693","0.0-4.3-0.3","390","","","STROOPtrain","","0","2","2","1091.2633497646646","1200","700","1","1","77889.30000000075","78984.40000000037","79374.80000000075"
"","EPstroop","8","81756","0.0-4.4-0.4","560","","","STROOPtrain","","0","0","1","793.7562966402301","1200","700","1","0","80081.20000000112","80879.90000000037","81440.30000000075"
"","EPstroop","9","83629","0.0-4.5-0.5","437","","","STROOPtrain","","0","2","1","719.185771454502","1200","700","1","0","82145","82874.70000000112","83311.40000000037"
"","EPstroop","10","85629","0.0-4.6-0.6","335","","","STROOPtrain","","0","2","0","956.8253792998362","1200","700","1","0","84017.70000000112","84976.10000000149","85311.20000000112"
"","EPstroop","11","87837","0.0-4.7-0.7","493","","","STROOPtrain","","0","0","0","996.3711302174678","1200","700","1","1","86017.20000000112","87026.10000000149","87519.60000000149"
"","EPstroop","12","89966","0.0-4.8-0.8","519","","","STROOPtrain","","0","2","2","899.8693179525989","1200","700","1","1","88224.30000000075","89128.40000000037","89647.30000000075"
"","EPstroop","13","92173","0.0-4.9-0.9","399","","","STROOPtrain","","0","1","1","1091.8718920175243","1200","700","1","1","90354.90000000037","91455.10000000149","91854.5"
"","EPstroop","14","94077","0.0-4.10-0.10","327","","","STROOPtrain","","0","2","2","863.6043991096351","1200","700","1","1","92561","93431.80000000075","93759.20000000112"
"","EPstroop","15","96077","0.0-4.11-0.11","406","","","STROOPtrain","","0","0","0","884.1442062773161","1200","700","1","1","94465.10000000149","95352.70000000112","95759.10000000149"
"","EPstroop","16","97885","0.0-4.12-0.12","311","","","STROOPtrain","","0","1","1","783.1789091832233","1200","700","1","1","96465.30000000075","97256","97567.5"
"","EPstroop","17","100268","0.0-4.13-0.13","640","","","STROOPtrain","","0","1","2","1034.9211496762928","1200","700","1","0","98273.5","99311.70000000112","99951.30000000075"
"","EPstroop","18","102317","0.0-4.14-0.14","479","","","STROOPtrain","","0","1","1","856.8219913582366","1200","700","1","1","100656.20000000112","101520","101999.30000000075"
"","EPstroop","19","104589","0.0-4.15-0.15","551","","","STROOPtrain","","0","2","2","1013.5827293080688","1200","700","1","1","102705.10000000149","103720.20000000112","104271.30000000075"
"","EPstroop","20","106699","0.0-4.16-0.16","366","","","STROOPtrain","","0","0","0","1022.2870533696762","1200","700","1","1","104976.40000000037","106000.40000000037","106366.60000000149"
"","EPstroop","21","108909","0.0-4.17-0.17","568","","","STROOPtrain","","0","0","2","935.4689866783483","1200","700","0","0","107086.90000000037","108023.80000000075","108591.60000000149"
"","external-html","22","113436","0.0-5.0-0.0","4446","-1","STROOP_html/welcome3.html","instructions","","","","","","","","","","","",""
"","call-function","23","113499","0.0-6.0","","","","","60.30000000074506","","","","","","","","","","",""
"","call-function","24","113556","0.0-7.0","","","","","57","","","","","","","","","","",""
"","EPstroop","25","115766","0.0-8.0-0.0","488","","","STROOPmain","","0","0","0","1002.8214740092794","1200","700","1","1","113943","114951.60000000149","115445.5"
"","EPstroop","26","117726","0.0-8.1-0.1","487","","","STROOPmain","","1","1","0","760.5984422764819","1200","700","1","0","116153.10000000149","116920","117407.70000000112"
"","EPstroop","27","119806","0.0-8.2-0.2","495","","","STROOPmain","","2","0","1","872.7381485595722","1200","700","1","0","118113","118992","119487.70000000112"
"","EPstroop","28","121774","0.0-8.3-0.3","487","","","STROOPmain","","3","1","2","771.967620828994","1200","700","1","0","120193.20000000112","120968.40000000037","121455.60000000149"
"","EPstroop","29","123934","0.0-8.4-0.4","439","","","STROOPmain","","4","1","1","1009.7631705444616","1200","700","1","1","122161.5","123175.80000000075","123615"
"","EPstroop","30","125823","0.0-8.5-0.5","375","","","STROOPmain","","5","2","2","803.4219581636726","1200","700","1","1","124321.10000000149","125128.30000000075","125503.60000000149"
"","EPstroop","31","127774","0.0-8.6-0.6","515","","","STROOPmain","","6","0","2","720.9526794785215","1200","700","1","0","126210.30000000075","126940.30000000075","127455.5"
"","EPstroop","32","129646","0.0-8.7-0.7","342","","","STROOPmain","","7","1","1","822.4761011501867","1200","700","1","1","128161.30000000075","128984.70000000112","129327.40000000037"
"","EPstroop","33","131565","0.0-8.8-0.8","375","","","STROOPmain","","8","1","1","831.4640088310132","1200","700","1","1","130032.90000000037","130872.10000000149","131247.90000000037"
"","EPstroop","34","133422","0.0-8.9-0.9","439","","","STROOPmain","","9","2","2","710.0674681715336","1200","700","1","1","131952.80000000075","132664.20000000112","133102.90000000037"
"","EPstroop","35","135550","0.0-8.10-0.10","479","","","STROOPmain","","10","2","2","942.6656620781462","1200","700","1","1","133809.1000000015","134752.5","135231.5"
"","EPstroop","36","137662","0.0-8.11-0.11","384","","","STROOPmain","","11","0","0","1019.5643577215426","1200","700","1","1","135936.80000000075","136959.70000000112","137343.5"
"","EPstroop","37","139790","0.0-8.12-0.12","457","","","STROOPmain","","12","0","0","945.0279137311084","1200","700","1","1","138049.1000000015","139014.30000000075","139471.5"
"","EPstroop","38","141758","0.0-8.13-0.13","415","","","STROOPmain","","13","1","0","842.0742054887659","1200","700","1","0","140177.40000000037","141024.1000000015","141439.70000000112"
"","EPstroop","39","143967","0.0-8.14-0.14","463","","","STROOPmain","","14","2","2","1036.7302927637202","1200","700","1","1","142145.40000000037","143184.20000000112","143647.40000000037"
"","EPstroop","40","146142","0.0-8.15-0.15","407","","","STROOPmain","","15","2","2","1061.488362068901","1200","700","1","1","144353.90000000037","145416.1000000015","145823.5"
"","EPstroop","41","148414","0.0-8.16-0.16","695","","","STROOPmain","","16","2","1","867.7880934860527","1200","700","1","0","146528.6000000015","147400.30000000075","148095.40000000037"
"","EPstroop","42","150478","0.0-8.17-0.17","527","","","STROOPmain","","17","2","2","827.6580269529343","1200","700","1","1","148800.90000000037","149631.80000000075","150159.40000000037"
"","EPstroop","43","152430","0.0-8.18-0.18","472","","","STROOPmain","","18","0","0","770.5990359186795","1200","700","1","1","150865.1000000015","151640","152111.70000000112"
"","EPstroop","44","154318","0.0-8.19-0.19","391","","","STROOPmain","","19","0","0","784.5636395629139","1200","700","1","1","152817.6000000015","153608","153998.90000000037"
"","EPstroop","45","156462","0.0-8.20-0.20","463","","","STROOPmain","","20","2","2","969.9443017777468","1200","700","1","1","154704.20000000112","155680.80000000075","156143.6000000015"
"","EPstroop","46","158606","0.0-8.21-0.21","383","","","STROOPmain","","21","2","2","1046.3377132043702","1200","700","1","1","156849.6000000015","157904.40000000037","158287.5"
"","EPstroop","47","160542","0.0-8.22-0.22","463","","","STROOPmain","","22","0","0","763.9948058062262","1200","700","1","1","158993","159760.5","160223.40000000037"
"","EPstroop","48","162542","0.0-8.23-0.23","471","","","STROOPmain","","23","2","2","821.5371475757363","1200","700","1","1","160929.5","161752.30000000075","162223.70000000112"
"","EPstroop","49","164590","0.0-8.24-0.24","411","","","STROOPmain","","24","0","0","912.1655410077793","1200","700","1","1","162928.70000000112","163860.20000000112","164271.5"
"","EPstroop","50","166414","0.0-8.25-0.25","334","","","STROOPmain","","25","1","1","782.0889470229315","1200","700","1","1","164976.30000000075","165760.90000000037","166095.40000000037"
"","EPstroop","51","168382","0.0-8.26-0.26","335","","","STROOPmain","","26","1","1","921.6880438160158","1200","700","1","1","166800.5","167728.40000000037","168063.5"
"","EPstroop","52","170526","0.0-8.27-0.27","350","","","STROOPmain","","27","1","2","1086.6674568736287","1200","700","1","0","168768.90000000037","169857.20000000112","170207.40000000037"
"","EPstroop","53","172669","0.0-8.28-0.28","352","","","STROOPmain","","28","2","2","1079.34577620979","1200","700","1","1","170913.30000000075","172000","172351.80000000075"
"","EPstroop","54","174942","0.0-8.29-0.29","469","","","STROOPmain","","29","1","1","1092.17882142478","1200","700","1","1","173056.1000000015","174153.70000000112","174623.1000000015"
"","EPstroop","55","176878","0.0-8.30-0.30","479","","","STROOPmain","","30","2","2","750.6837443030764","1200","700","1","1","175329.30000000075","176079.90000000037","176559.40000000037"
"","EPstroop","56","179086","0.0-8.31-0.31","430","","","STROOPmain","","31","2","2","1062.1420020787828","1200","700","1","1","177265.30000000075","178335.90000000037","178766.6000000015"
"","EPstroop","57","181215","0.0-8.32-0.32","503","","","STROOPmain","","32","1","1","916.0390522264928","1200","700","1","1","179473.40000000037","180392","180895.6000000015"
"","EPstroop","58","183406","0.0-8.33-0.33","399","","","STROOPmain","","33","1","1","1084.5644287020639","1200","700","1","1","181601.6000000015","182688","183087.70000000112"
"","EPstroop","59","185694","0.0-8.34-0.34","519","","","STROOPmain","","34","2","2","1060.9418204726028","1200","700","1","1","183793","184855.6000000015","185374.70000000112"
"","EPstroop","60","187710","0.0-8.35-0.35","512","","","STROOPmain","","35","1","1","782.0398877599443","1200","700","1","1","186081.20000000112","186878.30000000075","187390.5"
"","EPstroop","61","189630","0.0-8.36-0.36","471","","","STROOPmain","","36","2","1","741.1208528680024","1200","700","1","0","188096.40000000037","188840","189310.6000000015"
"","EPstroop","62","191662","0.0-8.37-0.37","415","","","STROOPmain","","37","0","1","909.8655537703049","1200","700","1","0","190016.90000000037","190928.5","191343.5"
"","EPstroop","63","193534","0.0-8.38-0.38","440","","","STROOPmain","","38","1","1","723.1600558062603","1200","700","1","1","192049.5","192775.80000000075","193215.70000000112"
"","EPstroop","64","195870","0.0-8.39-0.39","520","","","STROOPmain","","39","0","2","1090.7864784071671","1200","700","1","0","193921.40000000037","195030.80000000075","195550.6000000015"
"","EPstroop","65","197966","0.0-8.40-0.40","398","","","STROOPmain","","40","0","0","986.5184432999147","1200","700","1","1","196257.70000000112","197248.70000000112","197646.80000000075"
"","EPstroop","66","200062","0.0-8.41-0.41","447","","","STROOPmain","","41","0","0","941.2333889215496","1200","700","1","1","198352.90000000037","199296.30000000075","199743.40000000037"
"","EPstroop","67","202062","0.0-8.42-0.42","526","","","STROOPmain","","42","2","2","759.7259065179387","1200","700","1","1","200449","201216.90000000037","201742.6000000015"
"","EPstroop","68","204094","0.0-8.43-0.43","470","","","STROOPmain","","43","1","1","851.3748103255754","1200","700","1","1","202449.20000000112","203304.70000000112","203774.80000000075"
"","EPstroop","69","206030","0.0-8.44-0.44","349","","","STROOPmain","","44","2","2","874.064119485253","1200","700","1","1","204481.20000000112","205361.30000000075","205710.6000000015"
"","EPstroop","70","208078","0.0-8.45-0.45","375","","","STROOPmain","","45","1","1","959.4570475709684","1200","700","1","1","206417.1000000015","207384","207759.5"
"","EPstroop","71","210078","0.0-8.46-0.46","439","","","STROOPmain","","46","1","0","850.5606966445237","1200","700","1","0","208464","209320.30000000075","209759.40000000037"
"","EPstroop","72","211918","0.0-8.47-0.47","383","","","STROOPmain","","47","0","0","745.8174159782814","1200","700","1","1","210465.20000000112","211216.20000000112","211599.40000000037"
"","EPstroop","73","213710","0.0-8.48-0.48","375","","","STROOPmain","","48","0","0","704.2709588441386","1200","700","1","1","212305.20000000112","213016","213391.5"
"","EPstroop","74","216191","0.0-8.49-0.49","696","","","STROOPmain","","49","2","0","1074.7180432494001","1200","700","1","0","214097.40000000037","215175.80000000075","215871.90000000037"
"","EPstroop","75","218143","0.0-8.50-0.50","488","","","STROOPmain","","50","0","1","754.310789640465","1200","700","1","0","216578.30000000075","217335.70000000112","217823.6000000015"
"","EPstroop","76","220302","0.0-8.51-0.51","474","","","STROOPmain","","51","2","0","973.3115382439344","1200","700","1","0","218529.70000000112","219509","219982.90000000037"
"","EPstroop","77","222238","0.0-8.52-0.52","480","","","STROOPmain","","52","2","0","747.942427272023","1200","700","1","0","220689.6000000015","221439.80000000075","221919.5"
"","EPstroop","78","224366","0.0-8.53-0.53","455","","","STROOPmain","","53","0","2","963.4308861316752","1200","700","1","0","222624.80000000075","223592.30000000075","224047.5"
"","EPstroop","79","226495","0.0-8.54-0.54","503","","","STROOPmain","","54","0","2","918.8062776338606","1200","700","1","0","224753.20000000112","225672.5","226175.70000000112"
"","EPstroop","80","228510","0.0-8.55-0.55","351","","","STROOPmain","","55","1","1","957.9827549942228","1200","700","1","1","226881.5","227839.90000000037","228191.5"
"","EPstroop","81","230702","0.0-8.56-0.56","471","","","STROOPmain","","56","2","2","1009.259411133661","1200","700","1","1","228897.40000000037","229912","230382.90000000037"
"","EPstroop","82","232638","0.0-8.57-0.57","382","","","STROOPmain","","57","0","0","842.8501717006181","1200","700","1","1","231088.6000000015","231936.6000000015","232318.40000000037"
"","EPstroop","83","234751","0.0-8.58-0.58","430","","","STROOPmain","","58","0","0","972.033318987913","1200","700","1","1","233025.30000000075","234000","234430.6000000015"
"","EPstroop","84","236831","0.0-8.59-0.59","495","","","STROOPmain","","59","1","1","872.2438147826031","1200","700","1","1","235136.90000000037","236016.30000000075","236511"
"","EPstroop","85","239151","0.0-8.60-0.60","527","","","STROOPmain","","60","0","0","1078.7883852210518","1200","700","1","1","237217.5","238304","238831.40000000037"
"","EPstroop","86","241294","0.0-8.61-0.61","471","","","STROOPmain","","61","0","1","960.5586161032966","1200","700","1","0","239537.6000000015","240504","240975.40000000037"
"","EPstroop","87","243359","0.0-8.62-0.62","470","","","STROOPmain","","62","0","0","886.1275262565532","1200","700","1","1","241680.90000000037","242568.90000000037","243039.5"
"","EPstroop","88","245263","0.0-8.63-0.63","487","","","STROOPmain","","63","0","0","703.9648449683209","1200","700","1","1","243745.40000000037","244455.70000000112","244942.6000000015"
"","EPstroop","89","247615","0.0-8.64-0.64","704","","","STROOPmain","","64","2","1","937.8743137551821","1200","700","1","0","245649","246591.70000000112","247295.70000000112"
"","EPstroop","90","249839","0.0-8.65-0.65","471","","","STROOPmain","","65","1","1","1042.1569944006692","1200","700","1","1","248001","249048.1000000015","249519.6000000015"
"","EPstroop","91","251813","0.0-8.66-0.66","464","","","STROOPmain","","66","2","0","794.0385101197278","1200","700","1","0","250225","251023.70000000112","251487.40000000037"
"","EPstroop","92","253855","0.0-8.67-0.67","391","","","STROOPmain","","67","1","2","937.2797222923508","1200","700","1","0","252199.30000000075","253144.30000000075","253535.40000000037"
"","EPstroop","93","255839","0.0-8.68-0.68","455","","","STROOPmain","","68","1","1","815.4303971830018","1200","700","1","1","254240.5","255064","255519.40000000037"
"","EPstroop","94","258063","0.0-8.69-0.69","470","","","STROOPmain","","69","1","2","1040.2490630701836","1200","700","1","0","256224.70000000112","257272.5","257742.80000000075"
"","EPstroop","95","260111","0.0-8.70-0.70","477","","","STROOPmain","","70","2","1","851.564738365687","1200","700","1","0","258449.20000000112","259314.80000000075","259791.6000000015"
"","EPstroop","96","262159","0.0-8.71-0.71","583","","","STROOPmain","","71","1","0","751.128129750386","1200","700","1","0","260496.80000000075","261256.40000000037","261839.6000000015"
"true","fullscreen","97","263166","0.0-9.0","","","","","","","","","","","","","","","",""
"","external-html","98","268878","0.0-10.0","5430","","./STROOP_html/endscreen.html","endscreen","","","","","","","","","","","",""
