"success","trial_type","trial_index","time_elapsed","internal_node_id","rt","keypressed","url","trial_tag","value","tnum","string","color","fixdur","respdelay","feedbackdur","correct","congruent","startTime","displayTime","feedbackTime"
"true","fullscreen","0","2269","0.0-0.0","","","","","","","","","","","","","","","",""
"","external-html","1","58421","0.0-1.0-0.0","56091","-1","STROOP_html/welcome1.html","instructions","","","","","","","","","","","",""
"","external-html","2","72964","0.0-2.0-0.0","14464","-1","STROOP_html/welcome2.html","instructions","","","","","","","","","","","",""
"","call-function","3","73106","0.0-3.0","","","","","139.60000000009313","","","","","","","","","","",""
"","EPstroop","4","76075","0.0-4.0-0.0","-1","","","STROOPtrain","","0","2","2","1049.3515085163995","1200","700","-1","1","73813.20000000019","74869.3999999999","76077.8999999999"
"","EPstroop","5","78803","0.0-4.1-0.1","-1","","","STROOPtrain","","0","2","1","812.2539579324778","1200","700","-1","0","76783","77597.3999999999","78805.6000000001"
"","EPstroop","6","81458","0.0-4.2-0.2","-1","","","STROOPtrain","","0","2","2","739.836240045387","1200","700","-1","1","79510.5","80253.70000000019","81461"
"","EPstroop","7","84299","0.0-4.3-0.3","-1","","","STROOPtrain","","0","0","1","925.3809836861874","1200","700","-1","0","82165.3999999999","83093.6000000001","84301.79999999981"
"","EPstroop","8","86259","0.0-4.4-0.4","545","","","STROOPtrain","","0","2","2","704.5191071261884","1200","700","1","1","85006.1000000001","85717.5","86262.79999999981"
"","EPstroop","9","88771","0.0-4.5-0.5","928","","","STROOPtrain","","0","0","0","875.728172562248","1200","700","1","1","86966.8999999999","87845.70000000019","88773.70000000019"
"","EPstroop","10","90915","0.0-4.6-0.6","721","","","STROOPtrain","","0","0","0","716.2540661084149","1200","700","1","1","89478.1000000001","90197.79999999981","90918.79999999981"
"","EPstroop","11","92979","0.0-4.7-0.7","649","","","STROOPtrain","","0","0","0","704.8722969471066","1200","700","1","1","91622.70000000019","92333.1000000001","92982.5"
"","EPstroop","12","95186","0.0-4.8-0.8","761","","","STROOPtrain","","0","1","1","737.4091682084681","1200","700","1","1","93686.5","94429.29999999981","95190.70000000019"
"","EPstroop","13","97251","0.0-4.9-0.9","602","","","STROOPtrain","","0","0","0","759.2648597453457","1200","700","1","1","95893.3999999999","96653.6000000001","97255.20000000019"
"","EPstroop","14","99763","0.0-4.10-0.10","722","","","STROOPtrain","","0","1","1","1081.6219698870634","1200","700","1","1","97958.3999999999","99045","99766.8999999999"
"","EPstroop","15","102451","0.0-4.11-0.11","-1","","","STROOPtrain","","0","1","2","773.3633516608869","1200","700","-1","0","100470.29999999981","101245.6000000001","102453.6000000001"
"","EPstroop","16","104515","0.0-4.12-0.12","649","","","STROOPtrain","","0","2","2","702.6569298439729","1200","700","1","1","103158.70000000019","103869.20000000019","104518"
"","EPstroop","17","106819","0.0-4.13-0.13","890","","","STROOPtrain","","0","1","1","707.6273999418326","1200","700","1","1","105222.6000000001","105933.1000000001","106822.8999999999"
"","EPstroop","18","109251","0.0-4.14-0.14","697","","","STROOPtrain","","0","2","0","1026.7067350951063","1200","700","1","0","107526.3999999999","108557.70000000019","109255.20000000019"
"","EPstroop","19","111731","0.0-4.15-0.15","697","","","STROOPtrain","","0","1","0","1074.42289485413","1200","700","1","0","109958.79999999981","111037.70000000019","111734.8999999999"
"","EPstroop","20","114178","0.0-4.16-0.16","1042","","","STROOPtrain","","0","1","1","700.4400370634038","1200","700","1","1","112438.5","113141","114182.8999999999"
"","EPstroop","21","117163","0.0-4.17-0.17","-1","","","STROOPtrain","","0","0","2","1071.2760929869487","1200","700","-1","0","114885.20000000019","115957.1000000001","117165.5"
"","external-html","22","121557","0.0-5.0-0.0","4296","-1","STROOP_html/welcome3.html","instructions","","","","","","","","","","","",""
"","call-function","23","121625","0.0-6.0","","","","","63.40000000037253","","","","","","","","","","",""
"","call-function","24","121689","0.0-7.0","","","","","63.299999999813735","","","","","","","","","","",""
"","EPstroop","25","124386","0.0-8.0-0.0","-1","","","STROOPmain","","0","2","0","780.4089007227931","1200","700","-1","0","122397.20000000019","123185.5","124388.79999999981"
"","EPstroop","26","127315","0.0-8.1-0.1","-1","","","STROOPmain","","1","0","0","1010.241942181679","1200","700","-1","1","125093.5","126109.79999999981","127317"
"","EPstroop","27","129754","0.0-8.2-0.2","1018","","","STROOPmain","","2","1","1","709.1788262416987","1200","700","1","1","128022.29999999981","128732.8999999999","129756.6000000001"
"","EPstroop","28","131843","0.0-8.3-0.3","561","","","STROOPmain","","3","1","1","819.7386532907653","1200","700","1","1","130461.8999999999","131285.6000000001","131847.1000000001"
"","EPstroop","29","133906","0.0-8.4-0.4","554","","","STROOPmain","","4","0","0","804.2602084169466","1200","700","1","1","132550.5","133357.2000000002","133911.5"
"","EPstroop","30","136546","0.0-8.5-0.5","865","","","STROOPmain","","5","1","1","1069.3514292088703","1200","700","1","1","134613.7000000002","135685.5","136551.2999999998"
"","EPstroop","31","138483","0.0-8.6-0.6","522","","","STROOPmain","","6","0","0","706.5590223133819","1200","700","1","1","137254.1000000001","137965","138487.2000000002"
"","EPstroop","32","141355","0.0-8.7-0.7","-1","","","STROOPmain","","7","0","1","952.4974006762482","1200","700","-1","0","139191.1000000001","140149.2999999998","141357.5"
"","EPstroop","33","143699","0.0-8.8-0.8","754","","","STROOPmain","","8","0","1","883.8609129191201","1200","700","1","0","142062.3999999999","142949","143703.2000000002"
"","EPstroop","34","145907","0.0-8.9-0.9","505","","","STROOPmain","","9","1","1","992.1302048053801","1200","700","1","1","144407","145405.7000000002","145911.6000000001"
"","EPstroop","35","148707","0.0-8.10-0.10","-1","","","STROOPmain","","10","1","0","878.0660507585069","1200","700","-1","0","146614.5","147501.6000000001","148709.2000000002"
"","EPstroop","36","151042","0.0-8.11-0.11","913","","","STROOPmain","","11","2","2","714.4889239727141","1200","700","1","1","149414.2999999998","150133.6000000001","151047.3999999999"
"","EPstroop","37","153411","0.0-8.12-0.12","698","","","STROOPmain","","12","1","1","961.4456116924234","1200","700","1","1","151749.2999999998","152717.3999999999","153415.2000000002"
"","EPstroop","38","155555","0.0-8.13-0.13","457","","","STROOPmain","","13","1","1","980.1417882298526","1200","700","1","1","154119.2999999998","155102.2999999998","155559.1000000001"
"","EPstroop","39","158410","0.0-8.14-0.14","-1","","","STROOPmain","","14","0","0","941.7552259986869","1200","700","-1","1","156263","157205.3999999999","158413.5"
"","EPstroop","40","160642","0.0-8.15-0.15","490","","","STROOPmain","","15","0","0","1034.919023451556","1200","700","1","1","159118.2000000002","160157.2999999998","160647.3999999999"
"","EPstroop","41","162915","0.0-8.16-0.16","594","","","STROOPmain","","16","1","1","971.5463580869634","1200","700","1","1","161349.8999999999","162325.2000000002","162919"
"","EPstroop","42","165363","0.0-8.17-0.17","785","","","STROOPmain","","17","0","0","957.0691047389357","1200","700","1","1","163622.3999999999","164581.2000000002","165367"
"","EPstroop","43","167531","0.0-8.18-0.18","499","","","STROOPmain","","18","1","1","956.2129815501964","1200","700","1","1","166070.2999999998","167029.5","167528.5"
"","EPstroop","44","170274","0.0-8.19-0.19","953","","","STROOPmain","","19","1","2","1081.0015664353523","1200","700","0","0","168238.7999999998","169325.3999999999","170278.7999999998"
"","EPstroop","45","172548","0.0-8.20-0.20","649","","","STROOPmain","","20","2","2","915.0511808742704","1200","700","1","1","170981.8999999999","171901.5","172551.2000000002"
"","EPstroop","46","174643","0.0-8.21-0.21","488","","","STROOPmain","","21","2","2","901.5729895729161","1200","700","1","1","173255.3999999999","174157.8999999999","174646.2000000002"
"","EPstroop","47","176915","0.0-8.22-0.22","521","","","STROOPmain","","22","2","2","1038.5799795511002","1200","700","1","1","175350.7000000002","176397.7000000002","176919.2000000002"
"","EPstroop","48","178995","0.0-8.23-0.23","451","","","STROOPmain","","23","1","2","914.9771124391551","1200","700","1","0","177622.7999999998","178547.5","178999"
"","EPstroop","49","180979","0.0-8.24-0.24","482","","","STROOPmain","","24","2","2","790.0183395901716","1200","700","1","1","179702.6000000001","180501.5","180983.2000000002"
"","EPstroop","50","183155","0.0-8.25-0.25","609","","","STROOPmain","","25","0","0","859.5703046935478","1200","700","1","1","181686.6000000001","182549.5","183159"
"","EPstroop","51","185731","0.0-8.26-0.26","1160","","","STROOPmain","","26","2","2","705.3963357520163","1200","700","1","1","183862.7999999998","184573.3999999999","185734"
"","EPstroop","52","188195","0.0-8.27-0.27","697","","","STROOPmain","","27","0","1","1059.4608074795378","1200","700","1","0","186437.8999999999","187501.6000000001","188198.7999999998"
"","EPstroop","53","190467","0.0-8.28-0.28","610","","","STROOPmain","","28","0","2","957.2988632728303","1200","700","1","0","188902.2000000002","189861","190471.2999999998"
"","EPstroop","54","193266","0.0-8.29-0.29","1017","","","STROOPmain","","29","2","2","1071.774801479761","1200","700","1","1","191174.6000000001","192254.3999999999","193271.3999999999"
"","EPstroop","55","195363","0.0-8.30-0.30","594","","","STROOPmain","","30","0","0","796.1147049027421","1200","700","1","1","193973.7000000002","194773.2999999998","195367.1000000001"
"","EPstroop","56","197502","0.0-8.31-0.31","634","","","STROOPmain","","31","2","2","789.811559223865","1200","700","1","1","196070.6000000001","196861.1000000001","197495.1000000001"
"","EPstroop","57","199779","0.0-8.32-0.32","505","","","STROOPmain","","32","2","2","1061.6134113802461","1200","700","1","1","198209.7999999998","199277.3999999999","199782.8999999999"
"","EPstroop","58","201940","0.0-8.33-0.33","690","","","STROOPmain","","33","0","0","758.7186804973408","1200","700","1","1","200486.6000000001","201253.7999999998","201943.6000000001"
"","EPstroop","59","204387","0.0-8.34-0.34","761","","","STROOPmain","","34","1","2","980.6961270747126","1200","700","1","0","202647.6000000001","203629.7000000002","204390.5"
"","EPstroop","60","207027","0.0-8.35-0.35","-1","","","STROOPmain","","35","2","1","722.4467084603676","1200","700","-1","0","205094.2999999998","205821.7000000002","207029.6000000001"
"","EPstroop","61","209635","0.0-8.36-0.36","1018","","","STROOPmain","","36","0","0","885.3040597172444","1200","700","1","1","207734.2000000002","208620.7999999998","209639.2000000002"
"","EPstroop","62","212490","0.0-8.37-0.37","-1","","","STROOPmain","","37","0","1","934.2423880821258","1200","700","-1","0","210342.7999999998","211285.1000000001","212493.2000000002"
"","EPstroop","63","215011","0.0-8.38-0.38","882","","","STROOPmain","","38","2","2","934.7540120216627","1200","700","1","1","213197.6000000001","214133.2000000002","215015.5"
"","EPstroop","64","217011","0.0-8.39-0.39","586","","","STROOPmain","","39","2","2","704.151106157414","1200","700","1","1","215718.6000000001","216429.2999999998","217015.1000000001"
"","EPstroop","65","219155","0.0-8.40-0.40","441","","","STROOPmain","","40","2","2","992.3995583703429","1200","700","1","1","217717.7000000002","218717.7000000002","219159.1000000001"
"","EPstroop","66","221891","0.0-8.41-0.41","1025","","","STROOPmain","","41","1","1","1004.7910441833956","1200","700","1","1","219861.7000000002","220869.7999999998","221894.5"
"","EPstroop","67","224051","0.0-8.42-0.42","554","","","STROOPmain","","42","1","0","895.3747282214139","1200","700","1","0","222598.6000000001","223501.2000000002","224055.1000000001"
"","EPstroop","68","226851","0.0-8.43-0.43","1138","","","STROOPmain","","43","1","0","956.2769461648311","1200","700","1","0","224758.3999999999","225717.5","226855.5"
"","EPstroop","69","229588","0.0-8.44-0.44","1097","","","STROOPmain","","44","1","1","926.4887470736483","1200","700","1","1","227558.7000000002","228493.5","229591.1000000001"
"","EPstroop","70","231667","0.0-8.45-0.45","658","","","STROOPmain","","45","2","2","716.0474417168543","1200","700","1","1","230295.7000000002","231013.1000000001","231671.1000000001"
"","EPstroop","71","234210","0.0-8.46-0.46","914","","","STROOPmain","","46","1","1","920.8169981635183","1200","700","1","1","232374.7999999998","233301.2000000002","234215.2000000002"
"","EPstroop","72","236227","0.0-8.47-0.47","529","","","STROOPmain","","47","0","2","782.627186917303","1200","700","1","0","234918","235701.6000000001","236231.1000000001"
"","EPstroop","73","238988","0.0-8.48-0.48","-1","","","STROOPmain","","48","2","0","834.0409242504968","1200","700","-1","0","236934.7999999998","237773.7999999998","238991.2000000002"
"","EPstroop","74","241492","0.0-8.49-0.49","722","","","STROOPmain","","49","1","2","1073.6930157996912","1200","700","1","0","239694","240773.2000000002","241495.1000000001"
"","EPstroop","75","243955","0.0-8.50-0.50","672","","","STROOPmain","","50","0","0","1081.4423231402573","1200","700","1","1","242198.7999999998","243287","243959.1000000001"
"","EPstroop","76","246212","0.0-8.51-0.51","545","","","STROOPmain","","51","0","0","1004.859344692129","1200","700","1","1","244661.2999999998","245669.6000000001","246215.2000000002"
"","EPstroop","77","249164","0.0-8.52-0.52","-1","","","STROOPmain","","52","1","0","1035.2106514469351","1200","700","-1","0","246918.7000000002","247957.2999999998","249166.2000000002"
"","EPstroop","78","251651","0.0-8.53-0.53","986","","","STROOPmain","","53","0","0","793.2775583397324","1200","700","1","1","249869.8999999999","250668.8999999999","251655.3999999999"
"","EPstroop","79","254131","0.0-8.54-0.54","769","","","STROOPmain","","54","2","2","999.5581780659327","1200","700","1","1","252358","253365.7000000002","254135.2000000002"
"","EPstroop","80","256276","0.0-8.55-0.55","698","","","STROOPmain","","55","0","0","743.4099018202742","1200","700","1","1","254837.3999999999","255580.7999999998","256279.2000000002"
"","EPstroop","81","258452","0.0-8.56-0.56","642","","","STROOPmain","","56","2","2","827.6730518398673","1200","700","1","1","256982.3999999999","257812.8999999999","258455.2999999998"
"","EPstroop","82","261267","0.0-8.57-0.57","1185","","","STROOPmain","","57","1","1","923.7299809832463","1200","700","1","1","259158.7999999998","260085.5","261271.2000000002"
"","EPstroop","83","263899","0.0-8.58-0.58","-1","","","STROOPmain","","58","2","0","712.1691154925393","1200","700","-1","0","261973.3999999999","262693.2999999998","263900.7999999998"
"","EPstroop","84","266355","0.0-8.59-0.59","1034","","","STROOPmain","","59","2","0","716.0326247370429","1200","700","1","0","264606.2000000002","265325.5","266359.2000000002"
"","EPstroop","85","268484","0.0-8.60-0.60","618","","","STROOPmain","","60","1","1","805.2860883829138","1200","700","0","1","267062","267868.8999999999","268487"
"","EPstroop","86","271196","0.0-8.61-0.61","-1","","","STROOPmain","","61","2","1","791.0034394117246","1200","700","-1","0","269190","269989.2999999998","271197"
"","EPstroop","87","274019","0.0-8.62-0.62","1018","","","STROOPmain","","62","1","1","1096.8029746146324","1200","700","1","1","271902.7000000002","273005.5","274023.2000000002"
"","EPstroop","88","276355","0.0-8.63-0.63","786","","","STROOPmain","","63","0","0","844.9842741715912","1200","700","1","1","274725.8999999999","275572.8999999999","276359.3999999999"
"","EPstroop","89","279205","0.0-8.64-0.64","1073","","","STROOPmain","","64","0","2","1063.3896964948635","1200","700","0","0","277062.3999999999","278133.2999999998","279206.1000000001"
"","EPstroop","90","281731","0.0-8.65-0.65","761","","","STROOPmain","","65","1","1","1054.141346921924","1200","700","1","1","279911.3999999999","280974.5","281735.2000000002"
"","EPstroop","91","284707","0.0-8.66-0.66","-1","","","STROOPmain","","66","0","2","1059.890361947449","1200","700","-1","0","282438.1000000001","283501.7000000002","284709.1000000001"
"","EPstroop","92","287412","0.0-8.67-0.67","-1","","","STROOPmain","","67","0","0","783.1977937005187","1200","700","-1","1","285413.7999999998","286205.7999999998","287413.2000000002"
"","EPstroop","93","289923","0.0-8.68-0.68","928","","","STROOPmain","","68","2","1","870.5376025869767","1200","700","1","0","288118.7000000002","288997.7000000002","289926.1000000001"
"","EPstroop","94","292468","0.0-8.69-0.69","770","","","STROOPmain","","69","2","1","1063.8167710598748","1200","700","1","0","290630","291701.6000000001","292471.6000000001"
"","EPstroop","95","294723","0.0-8.70-0.70","698","","","STROOPmain","","70","1","1","850.9722183315462","1200","700","1","1","293174.8999999999","294028.8999999999","294727"
"","EPstroop","96","296660","0.0-8.71-0.71","521","","","STROOPmain","","71","2","2","710.4201106147557","1200","700","1","1","295429.7000000002","296141.2000000002","296662.1000000001"
"true","fullscreen","97","297668","0.0-9.0","","","","","","","","","","","","","","","",""
"","external-html","98","392681","0.0-10.0","94778","","./STROOP_html/endscreen.html","endscreen","","","","","","","","","","","",""
