"success","trial_type","trial_index","time_elapsed","internal_node_id","rt","keypressed","url","trial_tag","value","tnum","string","color","fixdur","respdelay","feedbackdur","correct","congruent","startTime","displayTime","feedbackTime"
"true","fullscreen","0","18976","0.0-0.0","","","","","","","","","","","","","","","",""
"","external-html","1","63431","0.0-1.0-0.0","44372","-1","STROOP_html/welcome1.html","instructions","","","","","","","","","","","",""
"","external-html","2","72329","0.0-2.0-0.0","8733","-1","STROOP_html/welcome2.html","instructions","","","","","","","","","","","",""
"","call-function","3","72486","0.0-3.0","","","","","152","","","","","","","","","","",""
"","EPstroop","4","75136","0.0-4.0-0.0","-1","","","STROOPtrain","","0","1","1","745.6598962904401","1200","700","-1","1","72934.30000000005","73681.09999999986","74883.3999999999"
"","EPstroop","5","77897","0.0-4.1-0.1","1035","","","STROOPtrain","","0","2","0","1017.5264317213112","1200","700","0","0","75586.19999999995","76604.30000000005","77639.3999999999"
"","EPstroop","6","80596","0.0-4.2-0.2","-1","","","STROOPtrain","","0","2","2","795.8497008941945","1200","700","-1","1","78346.3999999999","79142.09999999986","80342.69999999995"
"","EPstroop","7","83204","0.0-4.3-0.3","990","","","STROOPtrain","","0","0","0","916.2167780210773","1200","700","1","1","81045","81961.80000000005","82951.5"
"","EPstroop","8","85876","0.0-4.4-0.4","1007","","","STROOPtrain","","0","2","2","962.6348553565226","1200","700","1","1","83653","84616.19999999995","85623.09999999986"
"","EPstroop","9","88499","0.0-4.5-0.5","1184","","","STROOPtrain","","0","1","0","738.6899103789166","1200","700","0","0","86324.5","87063.30000000005","88247.09999999986"
"","EPstroop","10","90867","0.0-4.6-0.6","751","","","STROOPtrain","","0","1","1","915.5204402707861","1200","700","1","1","88948.8999999999","89864.3999999999","90615.19999999995"
"","EPstroop","11","93540","0.0-4.7-0.7","972","","","STROOPtrain","","0","2","1","998.1977075257103","1200","700","0","0","91316.80000000005","92315.19999999995","93287.5"
"","EPstroop","12","96382","0.0-4.8-0.8","1068","","","STROOPtrain","","0","0","0","1051.3213559854596","1200","700","1","1","93989.30000000005","95050.19999999995","96118.69999999995"
"","EPstroop","13","99076","0.0-4.9-0.9","1086","","","STROOPtrain","","0","0","0","905.8869298113889","1200","700","1","1","96831.80000000005","97737.09999999986","98823.30000000005"
"","EPstroop","14","101891","0.0-4.10-0.10","-1","","","STROOPtrain","","0","0","1","898.6043982263013","1200","700","-1","0","99525.3999999999","100424.5","101625.59999999986"
"","EPstroop","15","104714","0.0-4.11-0.11","-1","","","STROOPtrain","","0","0","2","919.4657058767207","1200","700","-1","0","102340.30000000005","103260.69999999995","104461.5"
"","EPstroop","16","107563","0.0-4.12-0.12","-1","","","STROOPtrain","","0","1","2","945.3577247281247","1200","700","-1","0","105163.09999999986","106108.5","107309.5"
"","EPstroop","17","110059","0.0-4.13-0.13","701","","","STROOPtrain","","0","2","2","1084.4714119083887","1200","700","1","1","108012.59999999986","109097.69999999995","109799.19999999995"
"","EPstroop","18","112863","0.0-4.14-0.14","-1","","","STROOPtrain","","0","0","0","900.7791480916736","1200","700","-1","1","110508.09999999986","111409.09999999986","112610.30000000005"
"","EPstroop","19","115679","0.0-4.15-0.15","-1","","","STROOPtrain","","0","2","2","911.1617060996107","1200","700","-1","1","113312.19999999995","114224.3999999999","115425.3999999999"
"","EPstroop","20","118276","0.0-4.16-0.16","929","","","STROOPtrain","","0","1","1","966.5755118713744","1200","700","1","1","116127.69999999995","117094.3999999999","118023.19999999995"
"","EPstroop","21","120643","0.0-4.17-0.17","856","","","STROOPtrain","","0","1","1","797.1357858897488","1200","700","1","1","118725.09999999986","119535.30000000005","120391.09999999986"
"","external-html","22","124503","0.0-5.0-0.0","3718","-1","STROOP_html/welcome3.html","instructions","","","","","","","","","","","",""
"","call-function","23","124613","0.0-6.0","","","","","104.89999999990687","","","","","","","","","","",""
"","call-function","24","124846","0.0-7.0","","","","","231.39999999990687","","","","","","","","","","",""
"","EPstroop","25","127643","0.0-8.0-0.0","1150","","","STROOPmain","","0","2","2","937.4213701596692","1200","700","1","1","125295.19999999995","126233.30000000005","127389.69999999995"
"","EPstroop","26","130453","0.0-8.1-0.1","1187","","","STROOPmain","","1","1","1","918.1385104094279","1200","700","1","1","128092.8999999999","129011.8999999999","130199.5"
"","EPstroop","27","133210","0.0-8.2-0.2","-1","","","STROOPmain","","2","1","0","853.4323450837139","1200","700","-1","0","130902.19999999995","131756.5","132957.19999999995"
"","EPstroop","28","136197","0.0-8.3-0.3","-1","","","STROOPmain","","3","2","0","1084.5142900472079","1200","700","-1","0","133659.30000000005","134744.19999999995","135944.59999999986"
"","EPstroop","29","138532","0.0-8.4-0.4","848","","","STROOPmain","","4","2","2","783.92842441251","1200","700","1","1","136646.59999999986","137431.09999999986","138279.69999999995"
"","EPstroop","30","141167","0.0-8.5-0.5","-1","","","STROOPmain","","5","2","1","733.7505262765519","1200","700","-1","0","138980.30000000005","139714.19999999995","140914.59999999986"
"","EPstroop","31","143812","0.0-8.6-0.6","1133","","","STROOPmain","","6","2","2","808.6028765290968","1200","700","1","1","141616.30000000005","142425.30000000005","143558.5"
"","EPstroop","32","146373","0.0-8.7-0.7","818","","","STROOPmain","","7","0","0","1040.675856557699","1200","700","1","1","144260.80000000005","145301.30000000005","146119.3999999999"
"","EPstroop","33","148693","0.0-8.8-0.8","770","","","STROOPmain","","8","2","2","846.3309649725309","1200","700","1","1","146821.8999999999","147669","148439.80000000005"
"","EPstroop","34","151093","0.0-8.9-0.9","955","","","STROOPmain","","9","0","0","740.7505329191576","1200","700","1","1","149142.59999999986","149884","150839.5"
"","EPstroop","35","153684","0.0-8.10-0.10","1154","","","STROOPmain","","10","0","1","735.0190791970185","1200","700","1","0","151541.80000000005","152277.30000000005","153431.3999999999"
"","EPstroop","36","156260","0.0-8.11-0.11","1134","","","STROOPmain","","11","2","1","739.8466628026072","1200","700","1","0","154132.8999999999","154873.09999999986","156007.30000000005"
"","EPstroop","37","158773","0.0-8.12-0.12","936","","","STROOPmain","","12","1","1","874.4638622286053","1200","700","1","1","156709","157583.59999999986","158519.59999999986"
"","EPstroop","38","161524","0.0-8.13-0.13","1139","","","STROOPmain","","13","0","0","908.9763141402841","1200","700","1","1","159222.09999999986","160131.69999999995","161271.19999999995"
"","EPstroop","39","163860","0.0-8.14-0.14","795","","","STROOPmain","","14","0","0","839.6740293965235","1200","700","1","1","161972.59999999986","162812.3999999999","163607.19999999995"
"","EPstroop","40","166531","0.0-8.15-0.15","1122","","","STROOPmain","","15","0","1","847.8809122914696","1200","700","1","0","164309.09999999986","165157","166279.19999999995"
"","EPstroop","41","168937","0.0-8.16-0.16","678","","","STROOPmain","","16","2","2","1021.9497102871173","1200","700","1","1","166980.09999999986","168001.69999999995","168679.69999999995"
"","EPstroop","42","171652","0.0-8.17-0.17","959","","","STROOPmain","","17","1","1","1041.5816445282144","1200","700","1","1","169386","170440.09999999986","171399.3999999999"
"","EPstroop","43","174052","0.0-8.18-0.18","819","","","STROOPmain","","18","0","0","878.8956833878265","1200","700","1","1","172101","172980","173798.59999999986"
"","EPstroop","44","176220","0.0-8.19-0.19","671","","","STROOPmain","","19","0","0","786.8315699452688","1200","700","1","1","174500.80000000005","175287.69999999995","175958.80000000005"
"","EPstroop","45","178389","0.0-8.20-0.20","694","","","STROOPmain","","20","2","2","771.2240522937255","1200","700","1","1","176668.80000000005","177441.59999999986","178135.3999999999"
"","EPstroop","46","181125","0.0-8.21-0.21","1083","","","STROOPmain","","21","2","1","949.6161710050422","1200","700","1","0","178838.09999999986","179788.09999999986","180871.3999999999"
"","EPstroop","47","183539","0.0-8.22-0.22","933","","","STROOPmain","","22","1","1","779.7058823221","1200","700","1","1","181573.80000000005","182353.80000000005","183286.80000000005"
"","EPstroop","48","186388","0.0-8.23-0.23","1164","","","STROOPmain","","23","2","0","982.7612445150019","1200","700","1","0","183987.8999999999","184971.59999999986","186135.30000000005"
"","EPstroop","49","189300","0.0-8.24-0.24","1135","","","STROOPmain","","24","1","1","1074.593277329058","1200","700","1","1","186837.30000000005","187912.19999999995","189047.30000000005"
"","EPstroop","50","191732","0.0-8.25-0.25","696","","","STROOPmain","","25","1","1","1034.2730311019307","1200","700","1","1","189749.09999999986","190783.30000000005","191479.59999999986"
"","EPstroop","51","194148","0.0-8.26-0.26","619","","","STROOPmain","","26","2","2","1094.7063816352834","1200","700","1","1","192181","193276","193895.3999999999"
"","EPstroop","52","196900","0.0-8.27-0.27","1190","","","STROOPmain","","27","1","0","859.1943406627494","1200","700","1","0","194597.19999999995","195457.69999999995","196647.3999999999"
"","EPstroop","53","199251","0.0-8.28-0.28","723","","","STROOPmain","","28","1","0","926.9685760577534","1200","700","1","0","197348.69999999995","198275","198998.69999999995"
"","EPstroop","54","201587","0.0-8.29-0.29","850","","","STROOPmain","","29","0","0","784.0919854943123","1200","700","1","1","199700.30000000005","200484.80000000005","201334.30000000005"
"","EPstroop","55","204116","0.0-8.30-0.30","747","","","STROOPmain","","30","1","1","1080.1093265111588","1200","700","1","1","202035.69999999995","203116.19999999995","203863.59999999986"
"","EPstroop","56","206627","0.0-8.31-0.31","964","","","STROOPmain","","31","0","0","844.7386075197966","1200","700","1","1","204565.09999999986","205410.8999999999","206375.3999999999"
"","EPstroop","57","209140","0.0-8.32-0.32","764","","","STROOPmain","","32","2","2","1047.1867296550972","1200","700","1","1","207076.09999999986","208123.59999999986","208887.3999999999"
"","EPstroop","58","211315","0.0-8.33-0.33","719","","","STROOPmain","","33","2","2","754.6197236328678","1200","700","1","1","209589","210343.69999999995","211062.59999999986"
"","EPstroop","59","214004","0.0-8.34-0.34","903","","","STROOPmain","","34","1","1","1084.1936128488721","1200","700","1","1","211763.69999999995","212848.5","213751.30000000005"
"","EPstroop","60","216436","0.0-8.35-0.35","758","","","STROOPmain","","35","1","2","972.0915066469333","1200","700","0","0","214452.80000000005","215426.09999999986","216183.59999999986"
"","EPstroop","61","218964","0.0-8.36-0.36","819","","","STROOPmain","","36","0","0","1006.1601445430656","1200","700","1","1","216885.09999999986","217892.3999999999","218711.19999999995"
"","EPstroop","62","221523","0.0-8.37-0.37","788","","","STROOPmain","","37","2","2","1068.113781190033","1200","700","1","1","219413.30000000005","220482.09999999986","221270.3999999999"
"","EPstroop","63","224021","0.0-8.38-0.38","825","","","STROOPmain","","38","0","2","969.991804040834","1200","700","1","0","221972.5","222941.8999999999","223767.3999999999"
"","EPstroop","64","226548","0.0-8.39-0.39","989","","","STROOPmain","","39","2","2","836.1798317136208","1200","700","1","1","224469.69999999995","225306.19999999995","226295.69999999995"
"","EPstroop","65","229028","0.0-8.40-0.40","744","","","STROOPmain","","40","2","2","1033.7859240271443","1200","700","1","1","226997.09999999986","228031.09999999986","228775.30000000005"
"","EPstroop","66","231813","0.0-8.41-0.41","1006","","","STROOPmain","","41","2","2","1076.5412066626934","1200","700","1","1","229476.30000000005","230552.8999999999","231559.19999999995"
"","EPstroop","67","234292","0.0-8.42-0.42","1041","","","STROOPmain","","42","1","1","735.3407479806899","1200","700","1","1","232261.30000000005","232997.69999999995","234038.5"
"","EPstroop","68","236981","0.0-8.43-0.43","993","","","STROOPmain","","43","2","2","993.8216377817042","1200","700","1","1","234740.59999999986","235734.30000000005","236727.80000000005"
"","EPstroop","69","239684","0.0-8.44-0.44","972","","","STROOPmain","","44","0","0","1016.2607373655062","1200","700","1","1","237429.69999999995","238459.09999999986","239431.30000000005"
"","EPstroop","70","242213","0.0-8.45-0.45","838","","","STROOPmain","","45","1","1","987.4403837293953","1200","700","1","1","240133.30000000005","241121.19999999995","241959.3999999999"
"","EPstroop","71","244900","0.0-8.46-0.46","953","","","STROOPmain","","46","1","1","1031.215986309874","1200","700","1","1","242662","243693.8999999999","244646.5"
"","EPstroop","72","247580","0.0-8.47-0.47","1112","","","STROOPmain","","47","0","1","859.9702362770669","1200","700","1","0","245348.3999999999","246207.69999999995","247319.69999999995"
"","EPstroop","73","250415","0.0-8.48-0.48","-1","","","STROOPmain","","48","0","1","929.6890330704223","1200","700","-1","0","248029.09999999986","248959.3999999999","250161.3999999999"
"","EPstroop","74","253011","0.0-8.49-0.49","911","","","STROOPmain","","49","0","0","983.2553983034254","1200","700","1","1","250862.8999999999","251847.09999999986","252758.69999999995"
"","EPstroop","75","255316","0.0-8.50-0.50","690","","","STROOPmain","","50","0","0","913.7420025681382","1200","700","1","1","253459.3999999999","254373.09999999986","255063.3999999999"
"","EPstroop","76","257876","0.0-8.51-0.51","846","","","STROOPmain","","51","0","0","1010.4034891668186","1200","700","1","1","255765.09999999986","256776.3999999999","257622.69999999995"
"","EPstroop","77","260356","0.0-8.52-0.52","756","","","STROOPmain","","52","0","0","1022.7351428818754","1200","700","1","1","258324.5","259346.8999999999","260103.09999999986"
"","EPstroop","78","262996","0.0-8.53-0.53","1136","","","STROOPmain","","53","2","0","802.8138298377037","1200","700","1","0","260804.80000000005","261607.3999999999","262743.3999999999"
"","EPstroop","79","265636","0.0-8.54-0.54","855","","","STROOPmain","","54","0","0","1083.9286079568035","1200","700","1","1","263444.69999999995","264528","265383.3999999999"
"","EPstroop","80","268245","0.0-8.55-0.55","875","","","STROOPmain","","55","0","2","1030.0758077327278","1200","700","1","0","266084.69999999995","267116.19999999995","267991.69999999995"
"","EPstroop","81","270923","0.0-8.56-0.56","-1","","","STROOPmain","","56","2","0","775.7667107426169","1200","700","-1","0","268693.3999999999","269469.19999999995","270670.3999999999"
"","EPstroop","82","273316","0.0-8.57-0.57","776","","","STROOPmain","","57","1","2","914.1312320317968","1200","700","1","0","271372.09999999986","272286.69999999995","273063.09999999986"
"","EPstroop","83","275924","0.0-8.58-0.58","872","","","STROOPmain","","58","1","2","1033.1912242403994","1200","700","1","0","273765.09999999986","274799.09999999986","275671.19999999995"
"","EPstroop","84","278149","0.0-8.59-0.59","648","","","STROOPmain","","59","2","2","873.0565642857705","1200","700","1","1","276372.69999999995","277246.8999999999","277895.30000000005"
"","EPstroop","85","280693","0.0-8.60-0.60","1073","","","STROOPmain","","60","1","2","767.4673350194055","1200","700","1","0","278597.19999999995","279365.8999999999","280439.3999999999"
"","EPstroop","86","283060","0.0-8.61-0.61","959","","","STROOPmain","","61","1","1","704.5673502610873","1200","700","1","1","281141.59999999986","281847.69999999995","282807.30000000005"
"","EPstroop","87","285557","0.0-8.62-0.62","751","","","STROOPmain","","62","2","1","1043.6059926010632","1200","700","1","0","283508.09999999986","284552.3999999999","285303.3999999999"
"","EPstroop","88","287924","0.0-8.63-0.63","830","","","STROOPmain","","63","1","0","834.5056323459993","1200","700","1","0","286005.3999999999","286840.80000000005","287671.19999999995"
"","EPstroop","89","290444","0.0-8.64-0.64","741","","","STROOPmain","","64","0","0","1068.5373496500201","1200","700","1","1","288373.30000000005","289441.69999999995","290183.3999999999"
"","EPstroop","90","292740","0.0-8.65-0.65","829","","","STROOPmain","","65","0","2","765.9615799778866","1200","700","1","0","290893.30000000005","291658.80000000005","292487.59999999986"
"","EPstroop","91","295187","0.0-8.66-0.66","690","","","STROOPmain","","66","0","2","1054.0227002416752","1200","700","1","0","293189.5","294244.69999999995","294934.3999999999"
"","EPstroop","92","297620","0.0-8.67-0.67","728","","","STROOPmain","","67","1","1","1002.5145071090692","1200","700","1","1","295636.3999999999","296638.80000000005","297367.19999999995"
"","EPstroop","93","299825","0.0-8.68-0.68","681","","","STROOPmain","","68","2","2","808.5231495064851","1200","700","1","1","298069.5","298877.80000000005","299559.3999999999"
"","EPstroop","94","302131","0.0-8.69-0.69","834","","","STROOPmain","","69","1","1","770.2578380884856","1200","700","1","1","300274","301044.69999999995","301878.5"
"","EPstroop","95","304533","0.0-8.70-0.70","652","","","STROOPmain","","70","1","1","1047.110973233044","1200","700","1","1","302579.3999999999","303627.59999999986","304279.59999999986"
"","EPstroop","96","306580","0.0-8.71-0.71","546","","","STROOPmain","","71","1","1","799.0948583424397","1200","700","1","1","304981.69999999995","305781.3999999999","306327.3999999999"
"true","fullscreen","97","307584","0.0-9.0","","","","","","","","","","","","","","","",""
"","external-html","98","314054","0.0-10.0","6157","","./STROOP_html/endscreen.html","endscreen","","","","","","","","","","","",""
