"success","trial_type","trial_index","time_elapsed","internal_node_id","rt","keypressed","url","trial_tag","value","tnum","string","color","fixdur","respdelay","feedbackdur","correct","congruent","startTime","displayTime","feedbackTime"
"true","fullscreen","0","2225","0.0-0.0","","","","","","","","","","","","","","","",""
"","external-html","1","9792","0.0-1.0-0.0","7517","-1","STROOP_html/welcome1.html","instructions","","","","","","","","","","","",""
"","external-html","2","14927","0.0-2.0-0.0","5071","-1","STROOP_html/welcome2.html","instructions","","","","","","","","","","","",""
"","call-function","3","14979","0.0-3.0","","","","","49.60000038146973","","","","","","","","","","",""
"","EPstroop","4","17246","0.0-4.0-0.0","638","","","STROOPtrain","","0","0","0","903.2513472594685","1200","700","1","1","15330.099999904633","16241.400000095367","16879.200000286102"
"","EPstroop","5","19105","0.0-4.1-0.1","362","","","STROOPtrain","","0","1","1","779.0374480890858","1200","700","1","1","17597.599999904633","18389.099999904633","18750.700000286102"
"","EPstroop","6","20992","0.0-4.2-0.2","342","","","STROOPtrain","","0","2","2","832.9223106734623","1200","700","1","1","19457.700000286102","20295.800000190735","20638"
"","EPstroop","7","23316","0.0-4.3-0.3","535","","","STROOPtrain","","0","2","2","1074.8842970306096","1200","700","1","1","21344.099999904633","22424.400000095367","22958.900000095367"
"","EPstroop","8","25642","0.0-4.4-0.4","510","","","STROOPtrain","","0","2","2","1092.219508062104","1200","700","1","1","23667.599999904633","24768.5","25278.900000095367"
"","EPstroop","9","27572","0.0-4.5-0.5","398","","","STROOPtrain","","0","0","0","817.5277888542023","1200","700","1","1","25993.800000190735","26817.200000286102","27214.800000190735"
"","EPstroop","10","29640","0.0-4.6-0.6","485","","","STROOPtrain","","0","0","2","861.8177815592378","1200","700","1","0","27924.300000190735","28792.700000286102","29278"
"","EPstroop","11","31553","0.0-4.7-0.7","414","","","STROOPtrain","","0","2","2","789.6506826914942","1200","700","1","1","29991.700000286102","30784","31198.300000190735"
"","EPstroop","12","33762","0.0-4.8-0.8","438","","","STROOPtrain","","0","1","2","1061.2141001715643","1200","700","1","0","31905.700000286102","32968.40000009537","33406.800000190735"
"","EPstroop","13","35745","0.0-4.9-0.9","383","","","STROOPtrain","","0","0","1","892.3840354060844","1200","700","1","0","34113.09999990463","35007.7000002861","35390.59999990463"
"","EPstroop","14","37857","0.0-4.10-0.10","358","","","STROOPtrain","","0","0","0","1040.0552879433367","1200","700","1","1","36097.2000002861","37144.800000190735","37502.800000190735"
"","EPstroop","15","39953","0.0-4.11-0.11","501","","","STROOPtrain","","0","1","0","880.4833801468221","1200","700","1","0","38208.800000190735","39096.300000190735","39597.800000190735"
"","EPstroop","16","42018","0.0-4.12-0.12","447","","","STROOPtrain","","0","2","0","905.9949476204066","1200","700","1","0","40304.59999990463","41216.300000190735","41662.90000009537"
"","EPstroop","17","44050","0.0-4.13-0.13","334","","","STROOPtrain","","0","1","1","987.7552644334895","1200","700","1","1","42369.2000002861","43360.40000009537","43693.90000009537"
"","EPstroop","18","46018","0.0-4.14-0.14","447","","","STROOPtrain","","0","1","1","814.831945767156","1200","700","1","1","44400.90000009537","45215.800000190735","45662.90000009537"
"","EPstroop","19","48178","0.0-4.15-0.15","613","","","STROOPtrain","","0","2","1","838.1384687957552","1200","700","1","0","46369.09999990463","47208.7000002861","47822.09999990463"
"","EPstroop","20","50050","0.0-4.16-0.16","359","","","STROOPtrain","","0","1","1","801.6941696427737","1200","700","1","1","48529.59999990463","49336.09999990463","49694.800000190735"
"","EPstroop","21","51954","0.0-4.17-0.17","495","","","STROOPtrain","","0","0","0","701.2058305965792","1200","700","1","1","50401","51104","51598.59999990463"
"","external-html","22","54976","0.0-5.0-0.0","2941","-1","STROOP_html/welcome3.html","instructions","","","","","","","","","","","",""
"","call-function","23","55027","0.0-6.0","","","","","47.59999990463257","","","","","","","","","","",""
"","call-function","24","55183","0.0-7.0","","","","","156.30000019073486","","","","","","","","","","",""
"","EPstroop","25","57474","0.0-8.0-0.0","717","","","STROOPmain","","0","2","1","861.4367079934942","1200","700","1","0","55535.2000002861","56400.7000002861","57120.5"
"","EPstroop","26","59345","0.0-8.1-0.1","446","","","STROOPmain","","1","2","2","717.2578537137708","1200","700","1","1","57824.800000190735","58544.59999990463","58990.90000009537"
"","EPstroop","27","61586","0.0-8.2-0.2","622","","","STROOPmain","","2","0","1","908.0239253997928","1200","700","1","0","59696.800000190735","60608.800000190735","61231"
"","EPstroop","28","63586","0.0-8.3-0.3","430","","","STROOPmain","","3","2","2","856.5006215128446","1200","700","1","1","61937","62800.40000009537","63231"
"","EPstroop","29","65473","0.0-8.4-0.4","350","","","STROOPmain","","4","0","0","828.80362037464","1200","700","1","1","63937","64768.40000009537","65118.7000002861"
"","EPstroop","30","67602","0.0-8.5-0.5","471","","","STROOPmain","","5","0","0","950.1854222910727","1200","700","1","1","65824.09999990463","66776.40000009537","67247.5"
"","EPstroop","31","69699","0.0-8.6-0.6","391","","","STROOPmain","","6","1","1","993.6875480263204","1200","700","1","1","67952.80000019073","68952","69342.90000009537"
"","EPstroop","32","71714","0.0-8.7-0.7","503","","","STROOPmain","","7","0","0","804.056565733506","1200","700","1","1","70050.30000019073","70856.09999990463","71359.09999990463"
"","EPstroop","33","73874","0.0-8.8-0.8","439","","","STROOPmain","","8","2","2","1010.7381462485562","1200","700","1","1","72065.90000009537","73079.80000019073","73519.09999990463"
"","EPstroop","34","75970","0.0-8.9-0.9","526","","","STROOPmain","","9","0","0","860.6151525954234","1200","700","1","1","74225.2000002861","75088.2000002861","75614.09999990463"
"","EPstroop","35","77842","0.0-8.10-0.10","358","","","STROOPmain","","10","1","1","804.6231215596731","1200","700","1","1","76321.59999990463","77128.5","77486.30000019073"
"","EPstroop","36","79857","0.0-8.11-0.11","486","","","STROOPmain","","11","0","0","819.6175293417947","1200","700","1","1","78193.2000002861","79016.09999990463","79502.09999990463"
"","EPstroop","37","81714","0.0-8.12-0.12","390","","","STROOPmain","","12","1","1","753.4861170224655","1200","700","1","1","80208.80000019073","80968.5","81359"
"","EPstroop","38","83633","0.0-8.13-0.13","502","","","STROOPmain","","13","1","0","710.3575900355368","1200","700","1","0","82064.59999990463","82775.80000019073","83278"
"","EPstroop","39","85650","0.0-8.14-0.14","350","","","STROOPmain","","14","1","0","955.4066911209297","1200","700","1","0","83984.09999990463","84944.5","85294.2000002861"
"","EPstroop","40","87778","0.0-8.15-0.15","454","","","STROOPmain","","15","2","2","964.8137116211245","1200","700","1","1","86001.30000019073","86968.30000019073","87422"
"","EPstroop","41","89793","0.0-8.16-0.16","494","","","STROOPmain","","16","0","0","809.7341202578339","1200","700","1","1","88128.7000002861","88944.80000019073","89438.80000019073"
"","EPstroop","42","91939","0.0-8.17-0.17","429","","","STROOPmain","","17","0","0","1002.1628942601961","1200","700","1","1","90144.90000009537","91152.59999990463","91582.09999990463"
"","EPstroop","43","93794","0.0-8.18-0.18","374","","","STROOPmain","","18","1","1","767.5136410497657","1200","700","1","1","92290.59999990463","93063.90000009537","93438"
"","EPstroop","44","95617","0.0-8.19-0.19","351","","","STROOPmain","","19","2","2","766.2467483698255","1200","700","1","1","94144.90000009537","94911.90000009537","95262.7000002861"
"","EPstroop","45","97601","0.0-8.20-0.20","357","","","STROOPmain","","20","0","2","918.1699126907974","1200","700","1","0","95968.90000009537","96888.40000009537","97245.80000019073"
"","EPstroop","46","99666","0.0-8.21-0.21","407","","","STROOPmain","","21","0","1","947.6361870254945","1200","700","1","0","97953.09999990463","98903.90000009537","99310.90000009537"
"","EPstroop","47","101592","0.0-8.22-0.22","365","","","STROOPmain","","22","2","0","846.7615738868616","1200","700","1","0","100016.7000002861","100864.80000019073","101230.30000019073"
"","EPstroop","48","103666","0.0-8.23-0.23","397","","","STROOPmain","","23","1","1","966.6805940194987","1200","700","1","1","101943.59999990463","102912.40000009537","103309.7000002861"
"","EPstroop","49","105601","0.0-8.24-0.24","334","","","STROOPmain","","24","2","2","893.43345399084","1200","700","1","1","104016.7000002861","104911.90000009537","105246.09999990463"
"","EPstroop","50","107618","0.0-8.25-0.25","430","","","STROOPmain","","25","1","1","878.1824893156742","1200","700","1","1","105952.09999990463","106832.40000009537","107262.90000009537"
"","EPstroop","51","109697","0.0-8.26-0.26","406","","","STROOPmain","","26","1","1","965.5875027620592","1200","700","1","1","107969.80000019073","108936.40000009537","109343"
"","EPstroop","52","111873","0.0-8.27-0.27","383","","","STROOPmain","","27","1","1","1080.7408884839206","1200","700","1","1","110048.2000002861","111135.80000019073","111519.09999990463"
"","EPstroop","53","114034","0.0-8.28-0.28","406","","","STROOPmain","","28","0","0","1046.1650624629756","1200","700","1","1","112225","113272.5","113678.2000002861"
"","EPstroop","54","116226","0.0-8.29-0.29","433","","","STROOPmain","","29","2","1","1043.2465056966507","1200","700","1","0","114385","115436.7000002861","115869.7000002861"
"","EPstroop","55","118466","0.0-8.30-0.30","582","","","STROOPmain","","30","2","0","947.586374044934","1200","700","1","0","116577.5","117528.2000002861","118110.90000009537"
"","EPstroop","56","120482","0.0-8.31-0.31","518","","","STROOPmain","","31","1","1","789.466595017515","1200","700","1","1","118817.09999990463","119608.30000019073","120126.90000009537"
"","EPstroop","57","122498","0.0-8.32-0.32","449","","","STROOPmain","","32","2","1","843.9087381913273","1200","700","1","0","120833.7000002861","121693.90000009537","122143.5"
"","EPstroop","58","124610","0.0-8.33-0.33","478","","","STROOPmain","","33","2","2","920.2048260182789","1200","700","1","1","122849.30000019073","123776.30000019073","124254.90000009537"
"","EPstroop","59","126642","0.0-8.34-0.34","534","","","STROOPmain","","34","0","0","787.1418429897963","1200","700","1","1","124961","125752.59999990463","126286.90000009537"
"","EPstroop","60","128546","0.0-8.35-0.35","438","","","STROOPmain","","35","0","0","758.2253274340153","1200","700","1","1","126993","127751.90000009537","128189.90000009537"
"","EPstroop","61","130579","0.0-8.36-0.36","452","","","STROOPmain","","36","2","2","867.5763833753458","1200","700","1","1","128897.09999990463","129769.5","130222"
"","EPstroop","62","132898","0.0-8.37-0.37","607","","","STROOPmain","","37","0","1","1005.4216170715958","1200","700","1","0","130929.90000009537","131936.40000009537","132543.2000002861"
"","EPstroop","63","134898","0.0-8.38-0.38","503","","","STROOPmain","","38","2","2","786.3718805838708","1200","700","1","1","133249.2000002861","134039.7000002861","134543"
"","EPstroop","64","136765","0.0-8.39-0.39","429","","","STROOPmain","","39","2","2","718.8905224495663","1200","700","1","1","135248.59999990463","135969.2000002861","136398.7000002861"
"","EPstroop","65","138994","0.0-8.40-0.40","421","","","STROOPmain","","40","0","2","1097.4660763872773","1200","700","1","0","137116.40000009537","138216.2000002861","138637.59999990463"
"","EPstroop","66","141074","0.0-8.41-0.41","494","","","STROOPmain","","41","2","0","873.3694368067127","1200","700","1","0","139345.59999990463","140224.5","140718.90000009537"
"","EPstroop","67","143201","0.0-8.42-0.42","527","","","STROOPmain","","42","2","2","889.8373562687686","1200","700","1","1","141425.7000002861","142320","142847.2000002861"
"","EPstroop","68","145122","0.0-8.43-0.43","414","","","STROOPmain","","43","1","2","791.8408478239752","1200","700","1","0","143552.59999990463","144352.90000009537","144766.80000019073"
"","EPstroop","69","147091","0.0-8.44-0.44","397","","","STROOPmain","","44","1","1","861.2790652653077","1200","700","1","1","145473.2000002861","146337.30000019073","146734.90000009537"
"","EPstroop","70","149233","0.0-8.45-0.45","438","","","STROOPmain","","45","0","0","992.6127386667054","1200","700","1","1","147442.2000002861","148440.30000019073","148879.09999990463"
"","EPstroop","71","151234","0.0-8.46-0.46","478","","","STROOPmain","","46","1","0","812.6553811913445","1200","700","1","0","149584.30000019073","150400.59999990463","150878.90000009537"
"","EPstroop","72","153522","0.0-8.47-0.47","503","","","STROOPmain","","47","1","1","1078.1531813265058","1200","700","1","1","151584.59999990463","152664.59999990463","153167.40000009537"
"","EPstroop","73","155666","0.0-8.48-0.48","478","","","STROOPmain","","48","1","0","952.6053480275839","1200","700","1","0","153873.5","154832.40000009537","155310.7000002861"
"","EPstroop","74","157826","0.0-8.49-0.49","502","","","STROOPmain","","49","1","1","949.432792524369","1200","700","1","1","156016.7000002861","156968","157470.7000002861"
"","EPstroop","75","160034","0.0-8.50-0.50","470","","","STROOPmain","","50","1","2","1027.943512782489","1200","700","1","0","158177.5","159208","159678.2000002861"
"","EPstroop","76","161970","0.0-8.51-0.51","430","","","STROOPmain","","51","1","2","792.7414635398001","1200","700","1","0","160385.30000019073","161184.2000002861","161615"
"","EPstroop","77","164131","0.0-8.52-0.52","582","","","STROOPmain","","52","2","1","867.8288224749149","1200","700","1","0","162320.7000002861","163192.5","163774.09999990463"
"","EPstroop","78","166243","0.0-8.53-0.53","431","","","STROOPmain","","53","0","0","971.83346707227","1200","700","1","1","164481.7000002861","165456.2000002861","165886.90000009537"
"","EPstroop","79","168371","0.0-8.54-0.54","414","","","STROOPmain","","54","2","2","1005.2913200013323","1200","700","1","1","166593.59999990463","167600.40000009537","168014.90000009537"
"","EPstroop","80","170354","0.0-8.55-0.55","317","","","STROOPmain","","55","1","1","956.0116196539441","1200","700","1","1","168722.40000009537","169680.40000009537","169997.80000019073"
"","EPstroop","81","172275","0.0-8.56-0.56","374","","","STROOPmain","","56","1","1","838.5543450877366","1200","700","1","1","170704.59999990463","171544.2000002861","171918.80000019073"
"","EPstroop","82","174370","0.0-8.57-0.57","413","","","STROOPmain","","57","2","2","971.3088197335733","1200","700","1","1","172626.59999990463","173601.09999990463","174013.80000019073"
"","EPstroop","83","176434","0.0-8.58-0.58","415","","","STROOPmain","","58","0","0","941.2818162501158","1200","700","1","1","174721","175664.09999990463","176078.80000019073"
"","EPstroop","84","178274","0.0-8.59-0.59","349","","","STROOPmain","","59","1","1","782.4069506410231","1200","700","1","1","176785","177568.59999990463","177918"
"","EPstroop","85","180466","0.0-8.60-0.60","446","","","STROOPmain","","60","0","1","1037.541459280008","1200","700","1","0","178625.59999990463","179664.7000002861","180110.7000002861"
"","EPstroop","86","182482","0.0-8.61-0.61","437","","","STROOPmain","","61","0","0","865.789438529292","1200","700","1","1","180817.40000009537","181689","182125.90000009537"
"","EPstroop","87","184419","0.0-8.62-0.62","430","","","STROOPmain","","62","2","2","795.7400588976723","1200","700","1","1","182832.59999990463","183632.40000009537","184062.7000002861"
"","EPstroop","88","186473","0.0-8.63-0.63","550","","","STROOPmain","","63","0","0","784.0429012818317","1200","700","1","1","184770.40000009537","185560.30000019073","186110.59999990463"
"","EPstroop","89","188626","0.0-8.64-0.64","431","","","STROOPmain","","64","0","2","1010.4608443088865","1200","700","1","0","186823.90000009537","187839.90000009537","188270.80000019073"
"","EPstroop","90","190866","0.0-8.65-0.65","526","","","STROOPmain","","65","0","0","1003.6176773084227","1200","700","1","1","188977.59999990463","189983.80000019073","190509.80000019073"
"","EPstroop","91","193026","0.0-8.66-0.66","445","","","STROOPmain","","66","1","2","1004.467333523417","1200","700","1","0","191216.80000019073","192225","192669.90000009537"
"","EPstroop","92","194914","0.0-8.67-0.67","399","","","STROOPmain","","67","2","2","776.0760873986213","1200","700","1","1","193376.7000002861","194159.90000009537","194559"
"","EPstroop","93","196850","0.0-8.68-0.68","471","","","STROOPmain","","68","2","0","753.7005812319633","1200","700","1","0","195264.59999990463","196023.59999990463","196495"
"","EPstroop","94","198962","0.0-8.69-0.69","645","","","STROOPmain","","69","2","2","752.5779819642902","1200","700","1","1","197201.5","197960.7000002861","198606"
"","EPstroop","95","201120","0.0-8.70-0.70","494","","","STROOPmain","","70","1","1","940.6696606423708","1200","700","1","1","199313.09999990463","200256.5","200750.7000002861"
"","EPstroop","96","203154","0.0-8.71-0.71","423","","","STROOPmain","","71","0","2","897.2044359111043","1200","700","1","0","201470.90000009537","202376.09999990463","202798.80000019073"
"true","fullscreen","97","204162","0.0-9.0","","","","","","","","","","","","","","","",""
"","external-html","98","209616","0.0-10.0","5197","","./STROOP_html/endscreen.html","endscreen","","","","","","","","","","","",""
