"success","trial_type","trial_index","time_elapsed","internal_node_id","rt","keypressed","url","trial_tag","value","tnum","string","color","fixdur","respdelay","feedbackdur","correct","congruent","startTime","displayTime","feedbackTime"
"true","fullscreen","0","17222","0.0-0.0","","","","","","","","","","","","","","","",""
"","external-html","1","57717","0.0-1.0-0.0","40428","-1","STROOP_html/welcome1.html","instructions","","","","","","","","","","","",""
"","external-html","2","75059","0.0-2.0-0.0","17269","-1","STROOP_html/welcome2.html","instructions","","","","","","","","","","","",""
"","call-function","3","75148","0.0-3.0","","","","","83.59999999962747","","","","","","","","","","",""
"","EPstroop","4","77879","0.0-4.0-0.0","-1","","","STROOPtrain","","0","2","0","818.9986967078853","1200","700","-1","0","75545.30000000075","76364.90000000037","77573.20000000019"
"","EPstroop","5","80110","0.0-4.1-0.1","771","","","STROOPtrain","","0","0","0","751.7491659119294","1200","700","0","1","78277.80000000075","79036.10000000056","79807"
"","EPstroop","6","82743","0.0-4.2-0.2","-1","","","STROOPtrain","","0","0","1","714.3280692614044","1200","700","-1","0","80508.20000000019","81227.80000000075","82435.80000000075"
"","EPstroop","7","85543","0.0-4.3-0.3","-1","","","STROOPtrain","","0","0","0","880.1442316732141","1200","700","-1","1","83141.10000000056","84028.30000000075","85235.60000000056"
"","EPstroop","8","88311","0.0-4.4-0.4","-1","","","STROOPtrain","","0","1","0","848.1974670152541","1200","700","-1","0","85941.70000000019","86796","88004.20000000019"
"","EPstroop","9","91087","0.0-4.5-0.5","1049","","","STROOPtrain","","0","0","0","1019.0712872243633","1200","700","1","1","88709.60000000056","89733.20000000019","90782"
"","EPstroop","10","93839","0.0-4.6-0.6","-1","","","STROOPtrain","","0","1","1","836.8388066999081","1200","700","-1","1","91485.5","92323.90000000037","93532.70000000019"
"","EPstroop","11","96255","0.0-4.7-0.7","890","","","STROOPtrain","","0","2","2","815.0921736028697","1200","700","1","1","94237.5","95060.40000000037","95951"
"","EPstroop","12","98871","0.0-4.8-0.8","1147","","","STROOPtrain","","0","1","1","755.9162732113844","1200","700","0","1","96652.90000000037","97412.70000000019","98559.40000000037"
"","EPstroop","13","101359","0.0-4.9-0.9","890","","","STROOPtrain","","0","2","2","891.805747268247","1200","700","1","1","99269.20000000019","100164","101054.40000000037"
"","EPstroop","14","104263","0.0-4.10-0.10","-1","","","STROOPtrain","","0","2","1","986.1889329049379","1200","700","-1","0","101757.30000000075","102748","103955.5"
"","EPstroop","15","106575","0.0-4.11-0.11","827","","","STROOPtrain","","0","1","1","781.4764011281704","1200","700","1","1","104661.20000000019","105443.70000000019","106270.90000000037"
"","EPstroop","16","109328","0.0-4.12-0.12","-1","","","STROOPtrain","","0","2","2","836.8996539282422","1200","700","-1","1","106973.10000000056","107812.60000000056","109020.20000000019"
"","EPstroop","17","111967","0.0-4.13-0.13","987","","","STROOPtrain","","0","2","2","947.542714669454","1200","700","1","1","109726.30000000075","110675.90000000037","111662.80000000075"
"","EPstroop","18","114703","0.0-4.14-0.14","-1","","","STROOPtrain","","0","0","0","815.7869584699583","1200","700","-1","1","112365.5","113188","114396.20000000019"
"","EPstroop","19","117510","0.0-4.15-0.15","-1","","","STROOPtrain","","0","0","2","888.7506806724091","1200","700","-1","0","115101.60000000056","115996.10000000056","117204.10000000056"
"","EPstroop","20","120218","0.0-4.16-0.16","1187","","","STROOPtrain","","0","1","2","806.8247539051861","1200","700","0","0","117908.90000000037","118716.70000000019","119903.30000000075"
"","EPstroop","21","122877","0.0-4.17-0.17","939","","","STROOPtrain","","0","1","1","1004.4212338096318","1200","700","1","1","120614.5","121620.30000000075","122559"
"","external-html","22","128947","0.0-5.0-0.0","5950","-1","STROOP_html/welcome3.html","instructions","","","","","","","","","","","",""
"","call-function","23","129045","0.0-6.0","","","","","92.40000000037253","","","","","","","","","","",""
"","call-function","24","129103","0.0-7.0","","","","","57.799999999813735","","","","","","","","","","",""
"","EPstroop","25","131777","0.0-8.0-0.0","-1","","","STROOPmain","","0","0","2","759.742480648865","1200","700","-1","0","129499.90000000037","130259.90000000037","131467.5"
"","EPstroop","26","134505","0.0-8.1-0.1","-1","","","STROOPmain","","1","1","0","809.9910562021009","1200","700","-1","0","132174.30000000075","132987.80000000075","134196.5"
"","EPstroop","27","137489","0.0-8.2-0.2","-1","","","STROOPmain","","2","2","2","1068.6419747236164","1200","700","-1","1","134901.40000000037","135973","137180.30000000075"
"","EPstroop","28","140200","0.0-8.3-0.3","993","","","STROOPmain","","3","2","2","1002.2309982970525","1200","700","1","1","137885.10000000056","138892.60000000056","139888.10000000056"
"","EPstroop","29","142952","0.0-8.4-0.4","-1","","","STROOPmain","","4","1","2","835.9486813671829","1200","700","-1","0","140597.10000000056","141436.2000000002","142644.80000000075"
"","EPstroop","30","145584","0.0-8.5-0.5","1075","","","STROOPmain","","5","0","0","852.4161323728632","1200","700","1","1","143349.30000000075","144204.10000000056","145279.10000000056"
"","EPstroop","31","148480","0.0-8.6-0.6","1170","","","STROOPmain","","6","2","0","1021.3025560894542","1200","700","0","0","145981","147004.2000000002","148174.40000000037"
"","EPstroop","32","151297","0.0-8.7-0.7","-1","","","STROOPmain","","7","2","2","902.6295269893421","1200","700","-1","1","148876.10000000056","149780.40000000037","150987.80000000075"
"","EPstroop","33","153984","0.0-8.8-0.8","-1","","","STROOPmain","","8","1","2","768.3682158223384","1200","700","-1","0","151693.80000000075","152467.80000000075","153676.40000000037"
"","EPstroop","34","156977","0.0-8.9-0.9","-1","","","STROOPmain","","9","0","0","1077.0212343230842","1200","700","-1","1","154381.10000000056","155460.60000000056","156668.30000000075"
"","EPstroop","35","159968","0.0-8.10-0.10","-1","","","STROOPmain","","10","2","2","1074.0096192512606","1200","700","-1","1","157373.40000000037","158453.2000000002","159659.90000000037"
"","EPstroop","36","162881","0.0-8.11-0.11","-1","","","STROOPmain","","11","1","1","993.5898136255521","1200","700","-1","1","160364.40000000037","161364.10000000056","162573"
"","EPstroop","37","165640","0.0-8.12-0.12","-1","","","STROOPmain","","12","2","1","845.2387348368496","1200","700","-1","0","163277.40000000037","164125.2000000002","165332.5"
"","EPstroop","38","168121","0.0-8.13-0.13","970","","","STROOPmain","","13","2","2","793.446057447305","1200","700","1","1","166036","166836.80000000075","167807.40000000037"
"","EPstroop","39","170928","0.0-8.14-0.14","-1","","","STROOPmain","","14","1","2","891.4013917113095","1200","700","-1","0","168517.90000000037","169412.40000000037","170620"
"","EPstroop","40","173832","0.0-8.15-0.15","-1","","","STROOPmain","","15","0","2","989.2571912487332","1200","700","-1","0","171324.90000000037","172315.90000000037","173523.80000000075"
"","EPstroop","41","176585","0.0-8.16-0.16","-1","","","STROOPmain","","16","1","1","833.6655897870215","1200","700","-1","1","174228.90000000037","175067.7000000002","176276.5"
"","EPstroop","42","178977","0.0-8.17-0.17","834","","","STROOPmain","","17","1","1","852.7921939946725","1200","700","1","1","176981.30000000075","177836.30000000075","178670.5"
"","EPstroop","43","181514","0.0-8.18-0.18","1075","","","STROOPmain","","18","0","0","743.3994381719183","1200","700","1","1","179373.80000000075","180123.90000000037","181199.40000000037"
"","EPstroop","44","184018","0.0-8.19-0.19","858","","","STROOPmain","","19","1","1","937.391980298003","1200","700","1","1","181910.10000000056","182852.60000000056","183710.60000000056"
"","EPstroop","45","186674","0.0-8.20-0.20","1026","","","STROOPmain","","20","1","1","922.9166039608677","1200","700","1","1","184413.80000000075","185340.60000000056","186366.5"
"","EPstroop","46","189561","0.0-8.21-0.21","1170","","","STROOPmain","","21","2","2","1004.4655255269629","1200","700","1","1","187069.80000000075","188077.2000000002","189247.80000000075"
"","EPstroop","47","192449","0.0-8.22-0.22","-1","","","STROOPmain","","22","0","1","973.4488910885899","1200","700","-1","0","189957.10000000056","190932.40000000037","192140.5"
"","EPstroop","48","194873","0.0-8.23-0.23","1003","","","STROOPmain","","23","1","1","705.1339832275869","1200","700","1","1","192845.40000000037","193555.80000000075","194559.60000000056"
"","EPstroop","49","197777","0.0-8.24-0.24","1202","","","STROOPmain","","24","0","0","992.3345609223959","1200","700","1","1","195269.30000000075","196268.10000000056","197470.60000000056"
"","EPstroop","50","200496","0.0-8.25-0.25","-1","","","STROOPmain","","25","0","2","805.6993000126766","1200","700","-1","0","198173.7000000002","198980.2000000002","200187.90000000037"
"","EPstroop","51","203330","0.0-8.26-0.26","-1","","","STROOPmain","","26","1","1","918.2964062376852","1200","700","-1","1","200892.2000000002","201812.60000000056","203021"
"","EPstroop","52","206049","0.0-8.27-0.27","963","","","STROOPmain","","27","1","1","1050.2936437959402","1200","700","1","1","203725.80000000075","204779.80000000075","205743.30000000075"
"","EPstroop","53","208905","0.0-8.28-0.28","-1","","","STROOPmain","","28","0","0","934.5965381026323","1200","700","-1","1","206445.40000000037","207388.10000000056","208595.90000000037"
"","EPstroop","54","211897","0.0-8.29-0.29","-1","","","STROOPmain","","29","2","1","1078.345371072986","1200","700","-1","0","209301","210379.80000000075","211588.2000000002"
"","EPstroop","55","214409","0.0-8.30-0.30","747","","","STROOPmain","","30","1","1","1046.3449823970554","1200","700","1","1","212293.40000000037","213348.2000000002","214095.40000000037"
"","EPstroop","56","216793","0.0-8.31-0.31","875","","","STROOPmain","","31","2","2","794.5884263175561","1200","700","1","1","214806","215604.40000000037","216479.40000000037"
"","EPstroop","57","219369","0.0-8.32-0.32","907","","","STROOPmain","","32","1","1","951.5803933397628","1200","700","1","1","217189.30000000075","218147.80000000075","219055.40000000037"
"","EPstroop","58","221889","0.0-8.33-0.33","970","","","STROOPmain","","33","0","0","845.8962322826601","1200","700","1","1","219764.2000000002","220611.90000000037","221582.30000000075"
"","EPstroop","59","224561","0.0-8.34-0.34","-1","","","STROOPmain","","34","1","0","743.7972486678034","1200","700","-1","0","222285","223036.60000000056","224253.5"
"","EPstroop","60","227257","0.0-8.35-0.35","-1","","","STROOPmain","","35","1","1","777.0714014851309","1200","700","-1","1","224957.40000000037","225739.80000000075","226948.40000000037"
"","EPstroop","61","229993","0.0-8.36-0.36","-1","","","STROOPmain","","36","0","2","817.2506046238518","1200","700","-1","0","227652.90000000037","228476.30000000075","229684.2000000002"
"","EPstroop","62","232393","0.0-8.37-0.37","835","","","STROOPmain","","37","2","2","853.7766978521549","1200","700","1","1","230389","231244.40000000037","232079.40000000037"
"","EPstroop","63","235345","0.0-8.38-0.38","-1","","","STROOPmain","","38","2","0","1031.9509977608438","1200","700","-1","0","232789.2000000002","233828.5","235035.7000000002"
"","EPstroop","64","238153","0.0-8.39-0.39","-1","","","STROOPmain","","39","2","2","890.5270487009813","1200","700","-1","1","235741","236636.60000000056","237844.40000000037"
"","EPstroop","65","240794","0.0-8.40-0.40","-1","","","STROOPmain","","40","0","0","722.5632972882349","1200","700","-1","1","238549.40000000037","239276.80000000075","240484.10000000056"
"","EPstroop","66","243251","0.0-8.41-0.41","898","","","STROOPmain","","41","0","0","854.7050037638292","1200","700","1","1","241189.2000000002","242043.90000000037","242942.30000000075"
"","EPstroop","67","246234","0.0-8.42-0.42","-1","","","STROOPmain","","42","2","2","1064.516807388471","1200","700","-1","1","243645.5","244716.5","245924.40000000037"
"","EPstroop","68","248659","0.0-8.43-0.43","821","","","STROOPmain","","43","2","2","881.4661023058413","1200","700","1","1","246629.2000000002","247529.5","248350.5"
"","EPstroop","69","251371","0.0-8.44-0.44","922","","","STROOPmain","","44","1","1","1074.7187828126093","1200","700","1","1","249053.90000000037","250133","251055.5"
"","EPstroop","70","253987","0.0-8.45-0.45","851","","","STROOPmain","","45","0","0","1056.1841234622595","1200","700","1","1","251766.2000000002","252828.10000000056","253679.30000000075"
"","EPstroop","71","256786","0.0-8.46-0.46","1026","","","STROOPmain","","46","0","0","1063.9644572127108","1200","700","1","1","254381.60000000056","255452.40000000037","256478.40000000037"
"","EPstroop","72","259619","0.0-8.47-0.47","-1","","","STROOPmain","","47","2","1","912.3062873220009","1200","700","-1","0","257180.90000000037","258100.40000000037","259308.2000000002"
"","EPstroop","73","262282","0.0-8.48-0.48","-1","","","STROOPmain","","48","2","0","749.6376724529727","1200","700","-1","0","260013.30000000075","260764.60000000056","261972.80000000075"
"","EPstroop","74","264859","0.0-8.49-0.49","770","","","STROOPmain","","49","2","2","1087.7999961532942","1200","700","1","1","262676.5","263772.80000000075","264543.4000000004"
"","EPstroop","75","267699","0.0-8.50-0.50","-1","","","STROOPmain","","50","1","0","920.4977234677676","1200","700","-1","0","265253.30000000075","266180.4000000004","267388.80000000075"
"","EPstroop","76","270523","0.0-8.51-0.51","-1","","","STROOPmain","","51","2","1","908.5328072959079","1200","700","-1","0","268093.80000000075","269003.9000000004","270212.7000000002"
"","EPstroop","77","273387","0.0-8.52-0.52","-1","","","STROOPmain","","52","0","0","943.8232221434192","1200","700","-1","1","270917.5","271868.80000000075","273075.7000000002"
"","EPstroop","78","276139","0.0-8.53-0.53","-1","","","STROOPmain","","53","1","0","835.0157885034059","1200","700","-1","0","273781.60000000056","274620.2000000002","275828.10000000056"
"","EPstroop","79","278931","0.0-8.54-0.54","-1","","","STROOPmain","","54","2","2","877.9110304542652","1200","700","-1","1","276533.80000000075","277412.9000000004","278619.9000000004"
"","EPstroop","80","281546","0.0-8.55-0.55","1067","","","STROOPmain","","55","1","1","837.4622554153086","1200","700","1","1","279325.60000000056","280164","281231.4000000004"
"","EPstroop","81","284522","0.0-8.56-0.56","-1","","","STROOPmain","","56","1","2","1057.9739934293884","1200","700","-1","0","281940.9000000004","283004.60000000056","284214.10000000056"
"","EPstroop","82","287346","0.0-8.57-0.57","1075","","","STROOPmain","","57","0","0","1041.7736247878934","1200","700","1","1","284917.10000000056","285964.2000000002","287038.9000000004"
"","EPstroop","83","290346","0.0-8.58-0.58","-1","","","STROOPmain","","58","0","0","1086.5965740388706","1200","700","-1","1","287740.4000000004","288828.5","290036.4000000004"
"","EPstroop","84","293091","0.0-8.59-0.59","-1","","","STROOPmain","","59","2","2","830.1203486634887","1200","700","-1","1","290740.10000000056","291572.80000000075","292780.2000000002"
"","EPstroop","85","295810","0.0-8.60-0.60","-1","","","STROOPmain","","60","0","0","802.7989338907464","1200","700","-1","1","293485.30000000075","294292.4000000004","295500.60000000056"
"","EPstroop","86","298363","0.0-8.61-0.61","771","","","STROOPmain","","61","1","1","1070.4246043447188","1200","700","1","1","296205.10000000056","297276.60000000056","298047.7000000002"
"","EPstroop","87","300852","0.0-8.62-0.62","826","","","STROOPmain","","62","2","2","951.4874957816075","1200","700","1","1","298757.60000000056","299716","300542.60000000056"
"","EPstroop","88","303620","0.0-8.63-0.63","1074","","","STROOPmain","","63","0","0","986.9703282201806","1200","700","1","1","301245.60000000056","302236.5","303310.7000000002"
"","EPstroop","89","305939","0.0-8.64-0.64","698","","","STROOPmain","","64","0","0","917.943649763337","1200","700","1","1","304013.30000000075","304932.60000000056","305630.60000000056"
"","EPstroop","90","308268","0.0-8.65-0.65","738","","","STROOPmain","","65","2","2","872.5876962111616","1200","700","1","1","306333.4000000004","307213","307951.5"
"","EPstroop","91","310940","0.0-8.66-0.66","979","","","STROOPmain","","66","1","1","981.1503095326761","1200","700","1","1","308661.7000000002","309644.4000000004","310623.7000000002"
"","EPstroop","92","313948","0.0-8.67-0.67","-1","","","STROOPmain","","67","0","1","1090.8065392684837","1200","700","-1","0","311333.5","312428.10000000056","313636.10000000056"
"","EPstroop","93","316667","0.0-8.68-0.68","1075","","","STROOPmain","","68","0","1","926.3004230620924","1200","700","0","0","314341.60000000056","315276.60000000056","316351.4000000004"
"","EPstroop","94","319660","0.0-8.69-0.69","-1","","","STROOPmain","","69","0","1","1076.6039661701584","1200","700","-1","0","317061.2000000002","318140","319347.9000000004"
"","EPstroop","95","322667","0.0-8.70-0.70","-1","","","STROOPmain","","70","2","0","1089.7173212322666","1200","700","-1","0","320053.4000000004","321148.60000000056","322355.9000000004"
"","EPstroop","96","325348","0.0-8.71-0.71","-1","","","STROOPmain","","71","1","1","761.1259071995628","1200","700","-1","1","323060.80000000075","323828.5","325037.10000000056"
"true","fullscreen","97","326355","0.0-9.0","","","","","","","","","","","","","","","",""
"","external-html","98","341550","0.0-10.0","14589","","./STROOP_html/endscreen.html","endscreen","","","","","","","","","","","",""
