"success","trial_type","trial_index","time_elapsed","internal_node_id","rt","keypressed","url","trial_tag","value","tnum","string","color","fixdur","respdelay","feedbackdur","correct","congruent","startTime","displayTime","feedbackTime"
"true","fullscreen","0","2657","0.0-0.0","","","","","","","","","","","","","","","",""
"","external-html","1","145880","0.0-1.0-0.0","143141","-1","STROOP_html/welcome1.html","instructions","","","","","","","","","","","",""
"","external-html","2","152342","0.0-2.0-0.0","6205","-1","STROOP_html/welcome2.html","instructions","","","","","","","","","","","",""
"","call-function","3","152417","0.0-3.0","","","","","70.8999999994412","","","","","","","","","","",""
"","EPstroop","4","155059","0.0-4.0-0.0","-1","","","STROOPtrain","","0","1","1","735.7001923295069","1200","700","-1","1","152820.2999999998","153556.5","154760.2000000002"
"","EPstroop","5","157921","0.0-4.1-0.1","-1","","","STROOPtrain","","0","2","2","958.9493462302464","1200","700","-1","1","155463.40000000037","156421.7999999998","157622.7000000002"
"","EPstroop","6","160643","0.0-4.2-0.2","1081","","","STROOPtrain","","0","0","0","936.6423197210665","1200","700","1","1","158324.5","159262.10000000056","160345"
"","EPstroop","7","163121","0.0-4.3-0.3","945","","","STROOPtrain","","0","2","2","830.2180948898666","1200","700","1","1","161046.90000000037","161877.7999999998","162822.7000000002"
"","EPstroop","8","165905","0.0-4.4-0.4","1167","","","STROOPtrain","","0","1","1","915.3791572798982","1200","700","1","1","163524.2999999998","164439.7999999998","165607.10000000056"
"","EPstroop","9","168513","0.0-4.5-0.5","-1","","","STROOPtrain","","0","0","0","704.2145654935454","1200","700","-1","1","166309","167014.2000000002","168215.40000000037"
"","EPstroop","10","171318","0.0-4.6-0.6","-1","","","STROOPtrain","","0","1","0","901.4388582776534","1200","700","-1","0","168917.10000000056","169819","171019.40000000037"
"","EPstroop","11","174040","0.0-4.7-0.7","-1","","","STROOPtrain","","0","1","1","817.8839104565816","1200","700","-1","1","171721.60000000056","172539.7999999998","173740.7000000002"
"","EPstroop","12","176961","0.0-4.8-0.8","-1","","","STROOPtrain","","0","0","1","1016.0732749505323","1200","700","-1","0","174443.40000000037","175460.7000000002","176661.7999999998"
"","EPstroop","13","179691","0.0-4.9-0.9","-1","","","STROOPtrain","","0","0","0","826.2428197898447","1200","700","-1","1","177364.2999999998","178190.7999999998","179392.2000000002"
"","EPstroop","14","182638","0.0-4.10-0.10","-1","","","STROOPtrain","","0","2","2","1044.7031628562697","1200","700","-1","1","180093.7000000002","181138.2000000002","182338.7999999998"
"","EPstroop","15","185515","0.0-4.11-0.11","-1","","","STROOPtrain","","0","1","1","973.9243572754033","1200","700","-1","1","183041","184014.40000000037","185215.2999999998"
"","EPstroop","16","188205","0.0-4.12-0.12","-1","","","STROOPtrain","","0","1","2","779.8648954942323","1200","700","-1","0","185917.7999999998","186697.7999999998","187898.60000000056"
"","EPstroop","17","191163","0.0-4.13-0.13","-1","","","STROOPtrain","","0","2","0","1049.897397261277","1200","700","-1","0","188608.40000000037","189657.90000000037","190863.90000000037"
"","EPstroop","18","193714","0.0-4.14-0.14","1073","","","STROOPtrain","","0","0","0","775.2109462052258","1200","700","1","1","191566.10000000056","192342.40000000037","193415.2000000002"
"","EPstroop","19","196397","0.0-4.15-0.15","-1","","","STROOPtrain","","0","2","1","779.5692378897667","1200","700","-1","0","194117.40000000037","194897.40000000037","196097.7999999998"
"","EPstroop","20","198880","0.0-4.16-0.16","1068","","","STROOPtrain","","0","2","2","713.4892959933708","1200","700","1","1","196800.2000000002","197514.10000000056","198582.2000000002"
"","EPstroop","21","201645","0.0-4.17-0.17","-1","","","STROOPtrain","","0","0","2","863.3614694260818","1200","700","-1","0","199282.90000000037","200146.40000000037","201346.60000000056"
"","external-html","22","206964","0.0-5.0-0.0","5239","-1","STROOP_html/welcome3.html","instructions","","","","","","","","","","","",""
"","call-function","23","207042","0.0-6.0","","","","","75.09999999962747","","","","","","","","","","",""
"","call-function","24","207111","0.0-7.0","","","","","67.80000000074506","","","","","","","","","","",""
"","EPstroop","25","209819","0.0-8.0-0.0","-1","","","STROOPmain","","0","0","0","804.4753616575604","1200","700","-1","1","207515.60000000056","208320.10000000056","209520.2000000002"
"","EPstroop","26","212552","0.0-8.1-0.1","-1","","","STROOPmain","","1","1","1","830.6874025524768","1200","700","-1","1","210221.90000000037","211053","212253.5"
"","EPstroop","27","215175","0.0-8.2-0.2","1049","","","STROOPmain","","2","1","1","866.7829744076611","1200","700","1","1","212955.2999999998","213822.2000000002","214876.10000000056"
"","EPstroop","28","217829","0.0-8.3-0.3","-1","","","STROOPmain","","3","0","1","751.0613489339978","1200","700","-1","0","215578","216330.2000000002","217530.5"
"","EPstroop","29","220560","0.0-8.4-0.4","-1","","","STROOPmain","","4","1","1","827.9005579266707","1200","700","-1","1","218231.90000000037","219060.2000000002","220261.2999999998"
"","EPstroop","30","222993","0.0-8.5-0.5","904","","","STROOPmain","","5","2","2","827.4168552809809","1200","700","1","1","220963.10000000056","221790.5","222694.90000000037"
"","EPstroop","31","225506","0.0-8.6-0.6","1009","","","STROOPmain","","6","0","0","800.0225663792287","1200","700","1","1","223396.40000000037","224197.7999999998","225207.2999999998"
"","EPstroop","32","228329","0.0-8.7-0.7","-1","","","STROOPmain","","7","1","0","920.0690562490228","1200","700","-1","0","225908.7000000002","226829.7000000002","228030.2999999998"
"","EPstroop","33","231075","0.0-8.8-0.8","1122","","","STROOPmain","","8","2","2","920.3481796882029","1200","700","1","1","228732.5","229653.40000000037","230775.40000000037"
"","EPstroop","34","233891","0.0-8.9-0.9","-1","","","STROOPmain","","9","1","2","912.5560540392439","1200","700","-1","0","231476.7999999998","232389.2000000002","233590.2999999998"
"","EPstroop","35","236595","0.0-8.10-0.10","1133","","","STROOPmain","","10","0","0","868.1344715120415","1200","700","1","1","234293.2000000002","235161.7000000002","236295.2999999998"
"","EPstroop","36","239411","0.0-8.11-0.11","1044","","","STROOPmain","","11","2","2","1069.2528277170652","1200","700","1","1","236997.2000000002","238067","239111.2999999998"
"","EPstroop","37","241907","0.0-8.12-0.12","903","","","STROOPmain","","12","2","2","891.325521046937","1200","700","1","1","239812.40000000037","240704.5","241607.40000000037"
"","EPstroop","38","244676","0.0-8.13-0.13","1145","","","STROOPmain","","13","0","0","921.0835984665972","1200","700","1","1","242308.90000000037","243230.40000000037","244375.60000000056"
"","EPstroop","39","247203","0.0-8.14-0.14","872","","","STROOPmain","","14","2","2","952.0141762265915","1200","700","1","1","245077.2000000002","246030.5","246903.10000000056"
"","EPstroop","40","249991","0.0-8.15-0.15","-1","","","STROOPmain","","15","0","2","885.8762910136422","1200","700","-1","0","247604.7000000002","248491.60000000056","249691.90000000037"
"","EPstroop","41","252628","0.0-8.16-0.16","954","","","STROOPmain","","16","2","2","979.3581674731088","1200","700","1","1","250393.10000000056","251372.5","252327.10000000056"
"","EPstroop","42","255332","0.0-8.17-0.17","1183","","","STROOPmain","","17","1","1","817.0693186717111","1200","700","1","1","253030","253848","255031.7999999998"
"","EPstroop","43","258227","0.0-8.18-0.18","1166","","","STROOPmain","","18","0","0","1026.8729763251358","1200","700","1","1","255733.7999999998","256760.90000000037","257927.2000000002"
"","EPstroop","44","260886","0.0-8.19-0.19","-1","","","STROOPmain","","19","1","1","754.793482306171","1200","700","-1","1","258629.2000000002","259383.90000000037","260584.40000000037"
"","EPstroop","45","263642","0.0-8.20-0.20","-1","","","STROOPmain","","20","1","1","852.7240363824943","1200","700","-1","1","261287.60000000056","262140.2000000002","263340.5"
"","EPstroop","46","266551","0.0-8.21-0.21","-1","","","STROOPmain","","21","2","1","1005.5499317375483","1200","700","-1","0","264043.60000000056","265050.10000000056","266250.9000000004"
"","EPstroop","47","269551","0.0-8.22-0.22","-1","","","STROOPmain","","22","1","1","1097.057025913457","1200","700","-1","1","266951.9000000004","268049.5","269249.9000000004"
"","EPstroop","48","272544","0.0-8.23-0.23","-1","","","STROOPmain","","23","0","2","1088.1063353181808","1200","700","-1","0","269952.60000000056","271042.5","272243.2000000002"
"","EPstroop","49","275218","0.0-8.24-0.24","1162","","","STROOPmain","","24","1","1","799.7144329708597","1200","700","1","1","272945.5","273756.60000000056","274918.2999999998"
"","EPstroop","50","277918","0.0-8.25-0.25","-1","","","STROOPmain","","25","1","0","796.58226862233","1200","700","-1","0","275620.4000000004","276417.2999999998","277618.4000000004"
"","EPstroop","51","280419","0.0-8.26-0.26","1057","","","STROOPmain","","26","0","0","742.0449780137253","1200","700","1","1","278319.2000000002","279062.5","280119.2999999998"
"","EPstroop","52","282787","0.0-8.27-0.27","909","","","STROOPmain","","27","0","0","756.5272336984445","1200","700","1","1","280820.5","281577.60000000056","282487.2000000002"
"","EPstroop","53","285587","0.0-8.28-0.28","1142","","","STROOPmain","","28","0","2","955.8267409909217","1200","700","1","0","283188.9000000004","284145.2000000002","285287.2999999998"
"","EPstroop","54","288147","0.0-8.29-0.29","964","","","STROOPmain","","29","2","2","893.2146542238147","1200","700","1","1","285988.7999999998","286883","287847.2999999998"
"","EPstroop","55","290677","0.0-8.30-0.30","1062","","","STROOPmain","","30","0","0","763.9667005997103","1200","700","1","1","288549.4000000004","289312.9000000004","290375.5"
"","EPstroop","56","293172","0.0-8.31-0.31","828","","","STROOPmain","","31","2","2","964.2686356746034","1200","700","1","1","291077","292042.4000000004","292870.5"
"","EPstroop","57","296165","0.0-8.32-0.32","-1","","","STROOPmain","","32","1","2","1090.4244169701374","1200","700","-1","0","293573.10000000056","294664.10000000056","295864.2999999998"
"","EPstroop","58","298900","0.0-8.33-0.33","-1","","","STROOPmain","","33","1","1","832.4201591789213","1200","700","-1","1","296566","297398.60000000056","298599"
"","EPstroop","59","301236","0.0-8.34-0.34","908","","","STROOPmain","","34","1","1","719.7353664332612","1200","700","1","1","299300.7999999998","300027.2999999998","300935.39999999944"
"","EPstroop","60","303910","0.0-8.35-0.35","-1","","","STROOPmain","","35","1","0","771.011755880652","1200","700","-1","0","301637.2999999998","302408.89999999944","303609.2999999998"
"","EPstroop","61","306785","0.0-8.36-0.36","-1","","","STROOPmain","","36","0","1","969.6821475949273","1200","700","-1","0","304311.2000000002","305282.2999999998","306483.39999999944"
"","EPstroop","62","309666","0.0-8.37-0.37","-1","","","STROOPmain","","37","0","0","978.9079761904795","1200","700","-1","1","307184.89999999944","308164.10000000056","309364.60000000056"
"","EPstroop","63","312533","0.0-8.38-0.38","-1","","","STROOPmain","","38","1","2","964.784465624482","1200","700","-1","0","310066.89999999944","311032.10000000056","312232.2999999998"
"","EPstroop","64","315522","0.0-8.39-0.39","-1","","","STROOPmain","","39","2","0","1085.2349723652223","1200","700","-1","0","312934.39999999944","314019.7999999998","315221.50000000093"
"","EPstroop","65","318133","0.0-8.40-0.40","1117","","","STROOPmain","","40","2","2","789.8734283621699","1200","700","1","1","315923.10000000056","316713.50000000093","317831.10000000056"
"","EPstroop","66","320974","0.0-8.41-0.41","-1","","","STROOPmain","","41","0","2","938.7593432839202","1200","700","-1","0","318533.50000000093","319472.7000000002","320673.10000000056"
"","EPstroop","67","323461","0.0-8.42-0.42","940","","","STROOPmain","","42","2","2","843.2785024811183","1200","700","1","1","321374.7999999998","322218.7999999998","323159.39999999944"
"","EPstroop","68","326284","0.0-8.43-0.43","-1","","","STROOPmain","","43","1","2","920.1342731003206","1200","700","-1","0","323861.2999999998","324782.2999999998","325983.39999999944"
"","EPstroop","69","329156","0.0-8.44-0.44","1099","","","STROOPmain","","44","0","0","1070.82883008152","1200","700","1","1","326685.10000000056","327756.2999999998","328855.39999999944"
"","EPstroop","70","332116","0.0-8.45-0.45","1175","","","STROOPmain","","45","1","1","1082.8518667608225","1200","700","1","1","329557.10000000056","330639.7999999998","331815.2000000002"
"","EPstroop","71","334918","0.0-8.46-0.46","-1","","","STROOPmain","","46","0","0","898.3042908314346","1200","700","-1","1","332517.00000000093","333416.60000000056","334617.2000000002"
"","EPstroop","72","337604","0.0-8.47-0.47","1024","","","STROOPmain","","47","2","2","959.585579821289","1200","700","1","1","335318.89999999944","336279.2000000002","337303.10000000056"
"","EPstroop","73","339987","0.0-8.48-0.48","892","","","STROOPmain","","48","2","2","789.7840443525384","1200","700","1","1","338004.7000000002","338795.2999999998","339687.2000000002"
"","EPstroop","74","342895","0.0-8.49-0.49","-1","","","STROOPmain","","49","2","1","1003.1974012724404","1200","700","-1","0","340387.7999999998","341392.2000000002","342593.00000000093"
"","EPstroop","75","345683","0.0-8.50-0.50","-1","","","STROOPmain","","50","1","0","883.33289887002","1200","700","-1","0","343295.7999999998","344180.10000000056","345382.2999999998"
"","EPstroop","76","348308","0.0-8.51-0.51","970","","","STROOPmain","","51","0","0","951.8728297990385","1200","700","1","1","346083.89999999944","347035.7999999998","348006.00000000093"
"","EPstroop","77","351013","0.0-8.52-0.52","1178","","","STROOPmain","","52","2","2","820.9909724135971","1200","700","1","1","348709.00000000093","349533.39999999944","350711.2000000002"
"","EPstroop","78","353716","0.0-8.53-0.53","1069","","","STROOPmain","","53","0","0","931.9850668586975","1200","700","1","1","351413.2999999998","352345.39999999944","353414.50000000093"
"","EPstroop","79","356533","0.0-8.54-0.54","1015","","","STROOPmain","","54","2","2","1098.9840578860114","1200","700","1","1","354116.50000000093","355215.39999999944","356230.50000000093"
"","EPstroop","80","359109","0.0-8.55-0.55","1120","","","STROOPmain","","55","1","1","754.4444221959438","1200","700","1","1","356932.7999999998","357687.60000000056","358807.50000000093"
"","EPstroop","81","361975","0.0-8.56-0.56","-1","","","STROOPmain","","56","0","1","964.0385369754681","1200","700","-1","0","359508.7999999998","360473.7000000002","361674.2000000002"
"","EPstroop","82","364549","0.0-8.57-0.57","929","","","STROOPmain","","57","1","1","943.3444532754645","1200","700","1","1","362374.7000000002","363318.2000000002","364247.10000000056"
"","EPstroop","83","367173","0.0-8.58-0.58","1113","","","STROOPmain","","58","0","0","809.0579730557114","1200","700","1","1","364948.89999999944","365758.39999999944","366871.2000000002"
"","EPstroop","84","369923","0.0-8.59-0.59","-1","","","STROOPmain","","59","2","0","835.2792994859753","1200","700","-1","0","367572.89999999944","368420.2999999998","369621.39999999944"
"","EPstroop","85","372787","0.0-8.60-0.60","-1","","","STROOPmain","","60","0","1","960.8350615418009","1200","700","-1","0","370323.2000000002","371284.7999999998","372485.89999999944"
"","EPstroop","86","375604","0.0-8.61-0.61","-1","","","STROOPmain","","61","2","2","912.5367389041531","1200","700","-1","1","373187.7000000002","374100.2000000002","375301.7000000002"
"","EPstroop","87","378406","0.0-8.62-0.62","-1","","","STROOPmain","","62","2","1","899.4792135923728","1200","700","-1","0","376003.89999999944","376904.00000000093","378104.60000000056"
"","EPstroop","88","381395","0.0-8.63-0.63","-1","","","STROOPmain","","63","0","0","1086.3665105619293","1200","700","-1","1","378806.50000000093","379893.2000000002","381094.2000000002"
"","EPstroop","89","384292","0.0-8.64-0.64","-1","","","STROOPmain","","64","2","0","993.8827613320498","1200","700","-1","0","381795.50000000093","382789.39999999944","383989.7999999998"
"","EPstroop","90","387157","0.0-8.65-0.65","1095","","","STROOPmain","","65","1","1","1065.0258844357968","1200","700","1","1","384692.50000000093","385758.7999999998","386853.89999999944"
"","EPstroop","91","390009","0.0-8.66-0.66","-1","","","STROOPmain","","66","0","0","948.5102077042604","1200","700","-1","1","387557.10000000056","388506.00000000093","389707.10000000056"
"","EPstroop","92","392837","0.0-8.67-0.67","1107","","","STROOPmain","","67","1","1","1019.8775161397828","1200","700","1","1","390409.10000000056","391428.50000000093","392535.39999999944"
"","EPstroop","93","395590","0.0-8.68-0.68","-1","","","STROOPmain","","68","2","0","849.5530150872555","1200","700","-1","0","393237.10000000056","394087.2999999998","395287.89999999944"
"","EPstroop","94","398500","0.0-8.69-0.69","1175","","","STROOPmain","","69","1","1","1033.0402504968515","1200","700","1","1","395989.89999999944","397023.2999999998","398198.2000000002"
"","EPstroop","95","401333","0.0-8.70-0.70","1093","","","STROOPmain","","70","2","2","1037.7981339836233","1200","700","1","1","398900.2000000002","399937.89999999944","401031.10000000056"
"","EPstroop","96","404301","0.0-8.71-0.71","-1","","","STROOPmain","","71","2","1","1063.2713268364153","1200","700","-1","0","401733.10000000056","402796.7000000002","403997.60000000056"
"true","fullscreen","97","405304","0.0-9.0","","","","","","","","","","","","","","","",""
"","external-html","98","409623","0.0-10.0","4047","","./STROOP_html/endscreen.html","endscreen","","","","","","","","","","","",""
