"success","trial_type","trial_index","time_elapsed","internal_node_id","rt","keypressed","url","trial_tag","value","tnum","string","color","fixdur","respdelay","feedbackdur","correct","congruent","startTime","displayTime","feedbackTime"
"true","fullscreen","0","3832","0.0-0.0","","","","","","","","","","","","","","","",""
"","external-html","1","17372","0.0-1.0-0.0","13427","-1","STROOP_html/welcome1.html","instructions","","","","","","","","","","","",""
"","external-html","2","21869","0.0-2.0-0.0","4397","-1","STROOP_html/welcome2.html","instructions","","","","","","","","","","","",""
"","call-function","3","21998","0.0-3.0","","","","","124.59999942779541","","","","","","","","","","",""
"","EPstroop","4","24973","0.0-4.0-0.0","-1","","","STROOPtrain","","0","1","1","1025.5175094003662","1200","700","-1","1","22777.800000190735","23821.60000038147","25041.800000190735"
"","EPstroop","5","27633","0.0-4.1-0.1","995","","","STROOPtrain","","0","1","1","928.3905574262183","1200","700","1","1","25753.5","26691.60000038147","27687"
"","EPstroop","6","30200","0.0-4.2-0.2","777","","","STROOPtrain","","0","2","1","1077.6136733266521","1200","700","0","0","28413.10000038147","29501.400000572205","30278"
"","EPstroop","7","32720","0.0-4.3-0.3","1003","","","STROOPtrain","","0","0","1","803.2157006741459","1200","700","1","0","30980","31787.5","32790.800000190735"
"","EPstroop","8","34833","0.0-4.4-0.4","676","","","STROOPtrain","","0","1","0","722.9544514924089","1200","700","1","0","33499.300000190735","34227.199999809265","34902.800000190735"
"","EPstroop","9","36896","0.0-4.5-0.5","437","","","STROOPtrain","","0","0","2","897.2477530152531","1200","700","1","0","35612.900000572205","36529.699999809265","36966.699999809265"
"","EPstroop","10","39430","0.0-4.6-0.6","939","","","STROOPtrain","","0","1","1","876.1601925273886","1200","700","1","1","37676.5","38555.400000572205","39494.5"
"","EPstroop","11","41728","0.0-4.7-0.7","572","","","STROOPtrain","","0","2","2","1012.9614723443202","1200","700","1","1","40210.5","41227.300000190735","41798.900000572205"
"","EPstroop","12","44433","0.0-4.8-0.8","996","","","STROOPtrain","","0","0","0","991.4301876839027","1200","700","1","1","42508.199999809265","43507.199999809265","44502.800000190735"
"","EPstroop","13","46457","0.0-4.9-0.9","578","","","STROOPtrain","","0","2","2","735.1495453554209","1200","700","1","1","45212.60000038147","45955.5","46533.699999809265"
"","EPstroop","14","48912","0.0-4.10-0.10","779","","","STROOPtrain","","0","2","2","963.387871612317","1200","700","1","1","47236.199999809265","48203.300000190735","48982.800000190735"
"","EPstroop","15","51080","0.0-4.11-0.11","706","","","STROOPtrain","","0","0","0","756.3721945478524","1200","700","1","1","49691.10000038147","50451.400000572205","51157.800000190735"
"","EPstroop","16","53368","0.0-4.12-0.12","595","","","STROOPtrain","","0","2","2","990.0010684716026","1200","700","1","1","51859.800000190735","52851.199999809265","53446.10000038147"
"","EPstroop","17","55459","0.0-4.13-0.13","635","","","STROOPtrain","","0","0","0","737.1467847927665","1200","700","1","1","54148.10000038147","54891.10000038147","55525.800000190735"
"","EPstroop","18","57792","0.0-4.14-0.14","579","","","STROOPtrain","","0","2","0","1040.7161929304514","1200","700","1","0","56238.699999809265","57283.5","57862.60000038147"
"","EPstroop","19","60543","0.0-4.15-0.15","1132","","","STROOPtrain","","0","1","1","909.9856994440237","1200","700","1","1","58571.400000572205","59482.800000190735","60614.400000572205"
"","EPstroop","20","62728","0.0-4.16-0.16","627","","","STROOPtrain","","0","0","0","854.7497390543017","1200","700","1","1","61322.800000190735","62179.199999809265","62805.699999809265"
"","EPstroop","21","64969","0.0-4.17-0.17","451","","","STROOPtrain","","0","1","2","1087.6953656423566","1200","700","1","0","63507","64595.400000572205","65046.10000038147"
"","external-html","22","117805","0.0-5.0-0.0","52703","-1","STROOP_html/welcome3.html","instructions","","","","","","","","","","","",""
"","call-function","23","117868","0.0-6.0","","","","","61.5","","","","","","","","","","",""
"","call-function","24","118035","0.0-7.0","","","","","166","","","","","","","","","","",""
"","EPstroop","25","120889","0.0-8.0-0.0","-1","","","STROOPmain","","0","0","2","935.6836345018278","1200","700","-1","0","118813.80000019073","119755.5","120963.30000019073"
"","EPstroop","26","123673","0.0-8.1-0.1","-1","","","STROOPmain","","1","0","0","867.9555426435725","1200","700","-1","1","121668","122538.80000019073","123748.10000038147"
"","EPstroop","27","126402","0.0-8.2-0.2","-1","","","STROOPmain","","2","2","1","813.7440542458185","1200","700","-1","0","124451.69999980927","125267.69999980927","126474.9000005722"
"","EPstroop","28","128010","0.0-8.3-0.3","107","","","STROOPmain","","3","0","0","794.357973306275","1200","700","0","1","127180.60000038147","127979.5","128086.4000005722"
"","EPstroop","29","130793","0.0-8.4-0.4","-1","","","STROOPmain","","4","1","1","863.2255131136253","1200","700","-1","1","128788.5","129659","130866.69999980927"
"","EPstroop","30","133074","0.0-8.5-0.5","572","","","STROOPmain","","5","0","0","992.909762149241","1200","700","1","1","131571.80000019073","132570.60000038147","133148.80000019073"
"","EPstroop","31","135601","0.0-8.6-0.6","740","","","STROOPmain","","6","1","1","1073.7437360358347","1200","700","1","1","133852.60000038147","134931","135670.80000019073"
"","EPstroop","32","137793","0.0-8.7-0.7","643","","","STROOPmain","","7","2","1","838.0053065881657","1200","700","1","0","136380","137219.80000019073","137862.80000019073"
"","EPstroop","33","140098","0.0-8.8-0.8","491","","","STROOPmain","","8","2","2","1098.1445926596261","1200","700","1","1","138572.10000038147","139675.4000005722","140167.19999980927"
"","EPstroop","34","142569","0.0-8.9-0.9","770","","","STROOPmain","","9","1","1","991.9708304791918","1200","700","1","1","140875.9000005722","141875.19999980927","142645.60000038147"
"","EPstroop","35","144777","0.0-8.10-0.10","731","","","STROOPmain","","10","0","2","770.9622579443599","1200","700","1","0","143347.30000019073","144123.19999980927","144853.80000019073"
"","EPstroop","36","146962","0.0-8.11-0.11","459","","","STROOPmain","","11","0","0","1011.4071043166848","1200","700","1","1","145555.10000038147","146571","147030.4000005722"
"","EPstroop","37","149825","0.0-8.12-0.12","-1","","","STROOPmain","","12","1","0","949.410269730702","1200","700","-1","0","147740.69999980927","148691.80000019073","149899.4000005722"
"","EPstroop","38","152067","0.0-8.13-0.13","500","","","STROOPmain","","13","2","2","1030.124261151795","1200","700","0","1","150603.30000019073","151635.10000038147","152134.9000005722"
"","EPstroop","39","154945","0.0-8.14-0.14","-1","","","STROOPmain","","14","1","2","960.4016263859945","1200","700","-1","0","152845.5","153811","155018.5"
"","EPstroop","40","157170","0.0-8.15-0.15","694","","","STROOPmain","","15","2","0","805.7559591256235","1200","700","1","0","155724.19999980927","156544.9000005722","157238.9000005722"
"","EPstroop","41","159593","0.0-8.16-0.16","635","","","STROOPmain","","16","2","2","1080.2266639417921","1200","700","1","1","157948.60000038147","159035.30000019073","159670.30000019073"
"","EPstroop","42","161650","0.0-8.17-0.17","427","","","STROOPmain","","17","0","0","912.4472243713922","1200","700","1","1","160372.10000038147","161291.60000038147","161718.60000038147"
"","EPstroop","43","164002","0.0-8.18-0.18","580","","","STROOPmain","","18","1","0","1056.786039652721","1200","700","1","0","162429.19999980927","163490.69999980927","164070.80000019073"
"","EPstroop","44","166514","0.0-8.19-0.19","787","","","STROOPmain","","19","2","2","1006.8786276765026","1200","700","1","1","164780.5","165795.19999980927","166582.80000019073"
"","EPstroop","45","169379","0.0-8.20-0.20","-1","","","STROOPmain","","20","0","1","944.8708419441575","1200","700","-1","0","167291.9000005722","168243.69999980927","169450.60000038147"
"","EPstroop","46","171537","0.0-8.21-0.21","596","","","STROOPmain","","21","0","0","852.8421031317271","1200","700","1","1","170157.69999980927","171010.69999980927","171606.60000038147"
"","EPstroop","47","174193","0.0-8.22-0.22","-1","","","STROOPmain","","22","1","1","739.5946450890408","1200","700","-1","1","172316.10000038147","173059","174267.19999980927"
"","EPstroop","48","176137","0.0-8.23-0.23","427","","","STROOPmain","","23","0","0","811.4024281113232","1200","700","1","1","174971.10000038147","175786.80000019073","176213.69999980927"
"","EPstroop","49","178833","0.0-8.24-0.24","-1","","","STROOPmain","","24","0","1","776.2958256174057","1200","700","-1","0","176916","177699.19999980927","178906.69999980927"
"","EPstroop","50","181042","0.0-8.25-0.25","564","","","STROOPmain","","25","1","0","928.7640523055718","1200","700","1","0","179611.9000005722","180546.69999980927","181110.69999980927"
"","EPstroop","51","183785","0.0-8.26-0.26","-1","","","STROOPmain","","26","0","1","827.8665995989443","1200","700","-1","0","181819.80000019073","182651.60000038147","183858.60000038147"
"","EPstroop","52","186705","0.0-8.27-0.27","-1","","","STROOPmain","","27","1","0","1000.8565908655438","1200","700","-1","0","184563.10000038147","185571.10000038147","186780.4000005722"
"","EPstroop","53","188546","0.0-8.28-0.28","395","","","STROOPmain","","28","1","1","729.8388246923039","1200","700","1","1","187484","188219","188614.60000038147"
"","EPstroop","54","190674","0.0-8.29-0.29","611","","","STROOPmain","","29","0","0","803.3554348521532","1200","700","1","1","189323.80000019073","190130.80000019073","190742.5"
"","EPstroop","55","193193","0.0-8.30-0.30","754","","","STROOPmain","","30","0","0","1054.8582408859936","1200","700","1","1","191452.5","192515.69999980927","193269.4000005722"
"","EPstroop","56","195185","0.0-8.31-0.31","459","","","STROOPmain","","31","1","1","821.8479120681172","1200","700","1","1","193972.30000019073","194795.5","195254.4000005722"
"","EPstroop","57","197089","0.0-8.32-0.32","459","","","STROOPmain","","32","1","2","730.1993246568447","1200","700","1","0","195964.19999980927","196699.5","197159.10000038147"
"","EPstroop","58","199409","0.0-8.33-0.33","659","","","STROOPmain","","33","1","1","948.3803153728173","1200","700","0","1","197868.4000005722","198819.4000005722","199478.30000019073"
"","EPstroop","59","201633","0.0-8.34-0.34","747","","","STROOPmain","","34","2","0","759.8894916369072","1200","700","1","0","200187.60000038147","200954.9000005722","201702.69999980927"
"","EPstroop","60","203538","0.0-8.35-0.35","419","","","STROOPmain","","35","2","1","771.7052737764096","1200","700","1","0","202411.60000038147","203187.30000019073","203606.80000019073"
"","EPstroop","61","205657","0.0-8.36-0.36","530","","","STROOPmain","","36","0","0","883.0620524652583","1200","700","1","1","204316.10000038147","205203.5","205734"
"","EPstroop","62","207793","0.0-8.37-0.37","604","","","STROOPmain","","37","1","1","817.7876032297193","1200","700","1","1","206435.80000019073","207258.69999980927","207863"
"","EPstroop","63","209809","0.0-8.38-0.38","515","","","STROOPmain","","38","2","2","791.8513783270154","1200","700","1","1","208570.9000005722","209362.9000005722","209878.60000038147"
"","EPstroop","64","212097","0.0-8.39-0.39","707","","","STROOPmain","","39","1","1","864.4807861987282","1200","700","1","1","210588.4000005722","211458.9000005722","212166.69999980927"
"","EPstroop","65","214049","0.0-8.40-0.40","474","","","STROOPmain","","40","2","2","761.3703468426281","1200","700","0","1","212876.10000038147","213644.4000005722","214118.30000019073"
"","EPstroop","66","216417","0.0-8.41-0.41","564","","","STROOPmain","","41","2","2","1092.390571001308","1200","700","1","1","214828.4000005722","215922.60000038147","216486.60000038147"
"","EPstroop","67","218705","0.0-8.42-0.42","764","","","STROOPmain","","42","0","0","814.2970839993229","1200","700","1","1","217195.80000019073","218010.60000038147","218774.80000019073"
"","EPstroop","68","220898","0.0-8.43-0.43","475","","","STROOPmain","","43","2","2","1002.894709233964","1200","700","0","1","219483.9000005722","220491","220966.4000005722"
"","EPstroop","69","223242","0.0-8.44-0.44","571","","","STROOPmain","","44","0","0","1052.0286280081145","1200","700","1","1","221676.60000038147","222731","223302.5"
"","EPstroop","70","225513","0.0-8.45-0.45","698","","","STROOPmain","","45","2","2","869.7911881351412","1200","700","1","1","224021.10000038147","224891.5","225589.5"
"","EPstroop","71","227546","0.0-8.46-0.46","579","","","STROOPmain","","46","2","2","744.8736461567692","1200","700","1","1","226291.4000005722","227042.69999980927","227621.60000038147"
"","EPstroop","72","229657","0.0-8.47-0.47","707","","","STROOPmain","","47","1","1","701.9932481141192","1200","700","1","1","228324.10000038147","229027","229733.60000038147"
"","EPstroop","73","231761","0.0-8.48-0.48","628","","","STROOPmain","","48","2","0","761.6510977113173","1200","700","1","0","230436.10000038147","231202.80000019073","231831.5"
"","EPstroop","74","233993","0.0-8.49-0.49","569","","","STROOPmain","","49","0","0","959.7724200135146","1200","700","1","1","232539.10000038147","233501","234069.9000005722"
"","EPstroop","75","236290","0.0-8.50-0.50","675","","","STROOPmain","","50","0","0","905.5052762271196","1200","700","1","1","234772.19999980927","235683","236358.60000038147"
"","EPstroop","76","238474","0.0-8.51-0.51","665","","","STROOPmain","","51","1","1","812.4298278594864","1200","700","1","1","237068.4000005722","237884","238549.4000005722"
"","EPstroop","77","241218","0.0-8.52-0.52","1004","","","STROOPmain","","52","1","1","1028.2778781664624","1200","700","1","1","239252.10000038147","240283.10000038147","241286.9000005722"
"","EPstroop","78","243707","0.0-8.53-0.53","690","","","STROOPmain","","53","2","2","1092.3251358757936","1200","700","1","1","241996.19999980927","243092.30000019073","243781.9000005722"
"","EPstroop","79","246034","0.0-8.54-0.54","572","","","STROOPmain","","54","0","0","1043.957898985251","1200","700","1","1","244484.69999980927","245530.60000038147","246102.60000038147"
"","EPstroop","80","248200","0.0-8.55-0.55","587","","","STROOPmain","","55","2","2","856.0708651015093","1200","700","1","1","246812.19999980927","247675.69999980927","248262.60000038147"
"","EPstroop","81","250370","0.0-8.56-0.56","683","","","STROOPmain","","56","1","1","770.2036178080554","1200","700","1","1","248977.9000005722","249755.30000019073","250438.69999980927"
"","EPstroop","82","252627","0.0-8.57-0.57","732","","","STROOPmain","","57","0","2","813.8384833640093","1200","700","1","0","251148.5","251962.69999980927","252694.80000019073"
"","EPstroop","83","254946","0.0-8.58-0.58","578","","","STROOPmain","","58","2","2","1027.4585108560877","1200","700","1","1","253406","254435.60000038147","255014.19999980927"
"","EPstroop","84","257051","0.0-8.59-0.59","682","","","STROOPmain","","59","1","1","715.7354152498408","1200","700","1","1","255723.9000005722","256442.9000005722","257125.4000005722"
"","EPstroop","85","259426","0.0-8.60-0.60","651","","","STROOPmain","","60","0","1","1010.905986554558","1200","700","1","0","257829.19999980927","258843.10000038147","259494.5"
"","EPstroop","86","261570","0.0-8.61-0.61","522","","","STROOPmain","","61","2","1","909.1678755755986","1200","700","1","0","260203.69999980927","261115.9000005722","261638.60000038147"
"","EPstroop","87","263882","0.0-8.62-0.62","691","","","STROOPmain","","62","0","2","917.873896719955","1200","700","1","0","262348.5","263267.19999980927","263957.69999980927"
"","EPstroop","88","265922","0.0-8.63-0.63","563","","","STROOPmain","","63","2","2","764.6855428410795","1200","700","1","1","264660.30000019073","265427.5","265990.5"
"","EPstroop","89","267994","0.0-8.64-0.64","618","","","STROOPmain","","64","2","2","748.5466355514792","1200","700","1","1","266700.4000005722","267451.80000019073","268069.4000005722"
"","EPstroop","90","270218","0.0-8.65-0.65","456","","","STROOPmain","","65","1","2","1048.245044162905","1200","700","1","0","268771.9000005722","269837.19999980927","270293.60000038147"
"","EPstroop","91","272219","0.0-8.66-0.66","499","","","STROOPmain","","66","2","2","795.113610696443","1200","700","1","1","270996.4000005722","271794.9000005722","272293.60000038147"
"","EPstroop","92","274482","0.0-8.67-0.67","556","","","STROOPmain","","67","0","0","996.0207639810662","1200","700","1","1","272996.60000038147","273994.80000019073","274550.9000005722"
"","EPstroop","93","276658","0.0-8.68-0.68","662","","","STROOPmain","","68","1","2","787.5608313150815","1200","700","1","0","275259.4000005722","276064.5","276726.4000005722"
"","EPstroop","94","278586","0.0-8.69-0.69","411","","","STROOPmain","","69","1","1","814.1216182063115","1200","700","1","1","277436.10000038147","278250.9000005722","278661.60000038147"
"","EPstroop","95","280690","0.0-8.70-0.70","451","","","STROOPmain","","70","2","0","943.4131582796444","1200","700","1","0","279363.10000038147","280307.10000038147","280758.60000038147"
"","EPstroop","96","282819","0.0-8.71-0.71","539","","","STROOPmain","","71","1","1","873.7483378411652","1200","700","1","1","281467.69999980927","282346.9000005722","282886.4000005722"
"true","fullscreen","97","283826","0.0-9.0","","","","","","","","","","","","","","","",""
"","external-html","98","290469","0.0-10.0","6392","","./STROOP_html/endscreen.html","endscreen","","","","","","","","","","","",""
