"success","trial_type","trial_index","time_elapsed","internal_node_id","rt","keypressed","url","trial_tag","value","tnum","string","color","fixdur","respdelay","feedbackdur","correct","congruent","startTime","displayTime","feedbackTime"
"true","fullscreen","0","23003","0.0-0.0","","","","","","","","","","","","","","","",""
"","external-html","1","35353","0.0-1.0-0.0","12285","-1","STROOP_html/welcome1.html","instructions","","","","","","","","","","","",""
"","external-html","2","40855","0.0-2.0-0.0","5424","-1","STROOP_html/welcome2.html","instructions","","","","","","","","","","","",""
"","call-function","3","40920","0.0-3.0","","","","","61.40000003576279","","","","","","","","","","",""
"","EPstroop","4","43744","0.0-4.0-0.0","-1","","","STROOPtrain","","0","2","2","902.7359536318477","1200","700","-1","1","41793.5","42708.5","43913.39999997616"
"","EPstroop","5","46103","0.0-4.1-0.1","775","","","STROOPtrain","","0","0","2","870.4954257227936","1200","700","1","0","44618.39999997616","45496.19999998808","46271.19999998808"
"","EPstroop","6","48455","0.0-4.2-0.2","599","","","STROOPtrain","","0","0","0","1045.345315681096","1200","700","1","1","46976.39999997616","48023.69999998808","48622.799999952316"
"","EPstroop","7","50567","0.0-4.3-0.3","366","","","STROOPtrain","","0","0","1","1036.6913511208704","1200","700","1","0","49328.59999996424","50368.59999996424","50734.69999998808"
"","EPstroop","8","52840","0.0-4.4-0.4","727","","","STROOPtrain","","0","2","0","833.144014940419","1200","700","1","0","51441.19999998808","52280.19999998808","53006.799999952316"
"","EPstroop","9","55081","0.0-4.5-0.5","555","","","STROOPtrain","","0","2","2","973.8722885105265","1200","700","1","1","53713","54691.5","55246.799999952316"
"","EPstroop","10","57209","0.0-4.6-0.6","614","","","STROOPtrain","","0","1","2","799.760902982787","1200","700","0","0","55954.299999952316","56760.89999997616","57375.19999998808"
"","EPstroop","11","59496","0.0-4.7-0.7","478","","","STROOPtrain","","0","1","1","1097.4362579671472","1200","700","1","1","58082","59184.299999952316","59662.69999998808"
"","EPstroop","12","61865","0.0-4.8-0.8","614","","","STROOPtrain","","0","0","0","1046.6736369506339","1200","700","1","1","60369.19999998808","61416.69999998808","62030.5"
"","EPstroop","13","64505","0.0-4.9-0.9","878","","","STROOPtrain","","0","2","1","1051.2166386962763","1200","700","1","0","62738.39999997616","63792.799999952316","64670.69999998808"
"","EPstroop","14","66504","0.0-4.10-0.10","526","","","STROOPtrain","","0","1","1","759.7676804930393","1200","700","1","1","65377.799999952316","66144.69999998808","66670.69999998808"
"","EPstroop","15","68408","0.0-4.11-0.11","374","","","STROOPtrain","","0","2","2","823.5685604756154","1200","700","1","1","67376.39999997616","68200.5","68574.79999995232"
"","EPstroop","16","70392","0.0-4.12-0.12","263","","","STROOPtrain","","0","0","0","1011.415609364709","1200","700","1","1","69280.59999996424","70296","70558.59999996424"
"","EPstroop","17","72296","0.0-4.13-0.13","469","","","STROOPtrain","","0","1","1","722.5364935053487","1200","700","1","1","71264.69999998808","71993.19999998808","72462.69999998808"
"","EPstroop","18","74632","0.0-4.14-0.14","862","","","STROOPtrain","","0","1","0","765.7664245383643","1200","700","0","0","73168.89999997616","73936.39999997616","74798.69999998808"
"","EPstroop","19","76632","0.0-4.15-0.15","415","","","STROOPtrain","","0","1","1","873.3181138691418","1200","700","1","1","75505.29999995232","76383.89999997616","76798.69999998808"
"","EPstroop","20","78648","0.0-4.16-0.16","294","","","STROOPtrain","","0","0","0","1014.3381382966713","1200","700","1","1","77505.09999996424","78520.59999996424","78814.89999997616"
"","EPstroop","21","80648","0.0-4.17-0.17","310","","","STROOPtrain","","0","2","2","979.2556802686091","1200","700","1","1","79521","80504.19999998808","80814.59999996424"
"","external-html","22","88151","0.0-5.0-0.0","7400","-1","STROOP_html/welcome3.html","instructions","","","","","","","","","","","",""
"","call-function","23","88207","0.0-6.0","","","","","51","","","","","","","","","","",""
"","call-function","24","88262","0.0-7.0","","","","","54.5","","","","","","","","","","",""
"","EPstroop","25","91041","0.0-8.0-0.0","1046","","","STROOPmain","","0","1","1","1009.370886984856","1200","700","1","1","89135.19999998808","90152.5","91204.69999998808"
"","EPstroop","26","93144","0.0-8.1-0.1","582","","","STROOPmain","","1","2","2","809.0911482630606","1200","700","1","1","91914.79999995232","92728.19999998808","93310.09999996424"
"","EPstroop","27","95400","0.0-8.2-0.2","598","","","STROOPmain","","2","1","1","943.5124449369856","1200","700","1","1","94017.29999995232","94968.69999998808","95566.59999996424"
"","EPstroop","28","98008","0.0-8.3-0.3","838","","","STROOPmain","","3","0","2","1061.5437614580997","1200","700","0","0","96273.09999996424","97336.5","98174.59999996424"
"","EPstroop","29","100345","0.0-8.4-0.4","918","","","STROOPmain","","4","1","2","709.089397158308","1200","700","1","0","98881.39999997616","99591.79999995232","100510.39999997616"
"","EPstroop","30","102553","0.0-8.5-0.5","534","","","STROOPmain","","5","1","1","960.5856546115641","1200","700","1","1","101217.79999995232","102184.59999996424","102718.89999997616"
"","EPstroop","31","105208","0.0-8.6-0.6","1190","","","STROOPmain","","6","1","0","756.7383541312574","1200","700","0","0","103426","104184.59999996424","105374.5"
"","EPstroop","32","107400","0.0-8.7-0.7","533","","","STROOPmain","","7","2","2","944.6601446740003","1200","700","1","1","106081.79999995232","107033.29999995232","107565.89999997616"
"","EPstroop","33","109512","0.0-8.8-0.8","669","","","STROOPmain","","8","0","0","734.7749081474949","1200","700","1","1","108273.29999995232","109008.5","109677.69999998808"
"","EPstroop","34","111672","0.0-8.9-0.9","575","","","STROOPmain","","9","0","0","874.0123699498831","1200","700","1","1","110385.69999998808","111264.19999998808","111839.19999998808"
"","EPstroop","35","113944","0.0-8.10-0.10","782","","","STROOPmain","","10","2","2","780.0912518735929","1200","700","1","1","112544.29999995232","113328.59999996424","114110.89999997616"
"","EPstroop","36","116648","0.0-8.11-0.11","1046","","","STROOPmain","","11","2","0","949.9677069300186","1200","700","1","0","114816.5","115768","116813.89999997616"
"","EPstroop","37","119306","0.0-8.12-0.12","1054","","","STROOPmain","","12","2","1","893.6961098224366","1200","700","1","0","117521","118416.39999997616","119470.79999995232"
"","EPstroop","38","121801","0.0-8.13-0.13","926","","","STROOPmain","","13","2","0","854.7331107857337","1200","700","1","0","120178.39999997616","121040.5","121967"
"","EPstroop","39","123704","0.0-8.14-0.14","454","","","STROOPmain","","14","0","0","737.8355504527598","1200","700","1","1","122673.79999995232","123416.29999995232","123870.59999996424"
"","EPstroop","40","125576","0.0-8.15-0.15","350","","","STROOPmain","","15","1","0","808.6682436504217","1200","700","1","0","124576.79999995232","125392.79999995232","125743.09999996424"
"","EPstroop","41","127642","0.0-8.16-0.16","542","","","STROOPmain","","16","2","1","813.0044024264993","1200","700","0","0","126448.5","127264.09999996424","127806.59999996424"
"","EPstroop","42","129865","0.0-8.17-0.17","662","","","STROOPmain","","17","2","2","849.3631039347293","1200","700","1","1","128514.5","129368.39999997616","130030.29999995232"
"","EPstroop","43","132088","0.0-8.18-0.18","486","","","STROOPmain","","18","0","0","1023.0688022497782","1200","700","1","1","130737.5","131768.69999998808","132255.09999996424"
"","EPstroop","44","134152","0.0-8.19-0.19","574","","","STROOPmain","","19","0","1","776.336056917989","1200","700","1","0","132961.19999998808","133744.19999998808","134318.79999995232"
"","EPstroop","45","136169","0.0-8.20-0.20","479","","","STROOPmain","","20","1","1","810.4131659892782","1200","700","1","1","135025.19999998808","135855","136334.09999996424"
"","EPstroop","46","138985","0.0-8.21-0.21","1094","","","STROOPmain","","21","0","0","1009.8605484230798","1200","700","1","1","137042.09999996424","138056.5","139150.29999995232"
"","EPstroop","47","141689","0.0-8.22-0.22","950","","","STROOPmain","","22","1","1","1038.7246772977853","1200","700","1","1","139857.39999997616","140904.69999998808","141854.79999995232"
"","EPstroop","48","144056","0.0-8.23-0.23","806","","","STROOPmain","","23","0","1","847.2725512038043","1200","700","1","0","142561.69999998808","143416.69999998808","144223.09999996424"
"","EPstroop","49","146089","0.0-8.24-0.24","430","","","STROOPmain","","24","2","2","893.7347884204615","1200","700","1","1","144929.19999998808","145824","146254.19999998808"
"","EPstroop","50","148345","0.0-8.25-0.25","542","","","STROOPmain","","25","1","1","1002.6790566817864","1200","700","1","1","146961.69999998808","147968.29999995232","148510.69999998808"
"","EPstroop","51","150265","0.0-8.26-0.26","406","","","STROOPmain","","26","1","1","802.3468009744101","1200","700","1","1","149217.69999998808","150024.5","150431.19999998808"
"","EPstroop","52","152521","0.0-8.27-0.27","582","","","STROOPmain","","27","0","0","959.2407297087007","1200","700","1","1","151137.39999997616","152104.19999998808","152686.69999998808"
"","EPstroop","53","154696","0.0-8.28-0.28","590","","","STROOPmain","","28","2","2","870.725847997314","1200","700","1","1","153393.69999998808","154272.59999996424","154862.5"
"","EPstroop","54","156824","0.0-8.29-0.29","518","","","STROOPmain","","29","1","0","897.9174476139362","1200","700","1","0","155569","156472.79999995232","156990.79999995232"
"","EPstroop","55","158920","0.0-8.30-0.30","429","","","STROOPmain","","30","0","1","956.0967773312739","1200","700","1","0","157696.79999995232","158656.5","159086.09999996424"
"","EPstroop","56","161241","0.0-8.31-0.31","574","","","STROOPmain","","31","2","2","1033.9306848090603","1200","700","1","1","159793.19999998808","160832.5","161406.59999996424"
"","EPstroop","57","163384","0.0-8.32-0.32","437","","","STROOPmain","","32","2","1","994.3755526500125","1200","700","1","0","162113","163113.09999996424","163550.69999998808"
"","EPstroop","58","165657","0.0-8.33-0.33","503","","","STROOPmain","","33","2","2","1055.8822889017288","1200","700","1","1","164256.5","165320.29999995232","165823.09999996424"
"","EPstroop","59","167801","0.0-8.34-0.34","573","","","STROOPmain","","34","1","0","854.2898768757625","1200","700","1","0","166529.69999998808","167393.29999995232","167966.69999998808"
"","EPstroop","60","170120","0.0-8.35-0.35","750","","","STROOPmain","","35","1","2","855.9495871330797","1200","700","1","0","168673.79999995232","169535.79999995232","170285.59999996424"
"","EPstroop","61","172537","0.0-8.36-0.36","790","","","STROOPmain","","36","0","0","915.5950323758874","1200","700","1","1","170992.79999995232","171912.79999995232","172702.59999996424"
"","EPstroop","62","174968","0.0-8.37-0.37","638","","","STROOPmain","","37","0","2","1086.0331112941362","1200","700","1","0","173409.39999997616","174496.09999996424","175134.69999998808"
"","EPstroop","63","177258","0.0-8.38-0.38","639","","","STROOPmain","","38","0","0","942.4845169794355","1200","700","1","1","175840.79999995232","176784.19999998808","177423.09999996424"
"","EPstroop","64","179241","0.0-8.39-0.39","486","","","STROOPmain","","39","2","2","789.6665255290013","1200","700","1","1","178130.19999998808","178920.19999998808","179406.69999998808"
"","EPstroop","65","181209","0.0-8.40-0.40","446","","","STROOPmain","","40","0","0","807.7799273019295","1200","700","1","1","180114","180928.59999996424","181374.69999998808"
"","EPstroop","66","183225","0.0-8.41-0.41","574","","","STROOPmain","","41","2","2","731.6344934796672","1200","700","1","1","182081.39999997616","182816.69999998808","183390.69999998808"
"","EPstroop","67","185065","0.0-8.42-0.42","294","","","STROOPmain","","42","1","1","833.8044653464563","1200","700","1","1","184097.5","184936.19999998808","185230.69999998808"
"","EPstroop","68","187064","0.0-8.43-0.43","405","","","STROOPmain","","43","0","2","884.3455889083725","1200","700","1","0","185937.29999995232","186824.39999997616","187229.89999997616"
"","EPstroop","69","188921","0.0-8.44-0.44","406","","","STROOPmain","","44","0","0","737.2041328971995","1200","700","0","1","187936.79999995232","188680.09999996424","189086.09999996424"
"","EPstroop","70","191193","0.0-8.45-0.45","597","","","STROOPmain","","45","2","0","962.626065709806","1200","700","0","0","189793.59999996424","190761.09999996424","191357.69999998808"
"","EPstroop","71","193449","0.0-8.46-0.46","806","","","STROOPmain","","46","0","0","741.3735698223588","1200","700","1","1","192065.59999996424","192808.09999996424","193614.79999995232"
"","EPstroop","72","195673","0.0-8.47-0.47","718","","","STROOPmain","","47","1","1","791.1411539147905","1200","700","1","1","194321.09999996424","195120.09999996424","195838.79999995232"
"","EPstroop","73","197977","0.0-8.48-0.48","686","","","STROOPmain","","48","1","1","904.6720331209684","1200","700","1","1","196545.79999995232","197456.39999997616","198142.69999998808"
"","EPstroop","74","200121","0.0-8.49-0.49","692","","","STROOPmain","","49","2","2","735.8262386671398","1200","700","1","1","198849.39999997616","199593.39999997616","200285.69999998808"
"","EPstroop","75","202266","0.0-8.50-0.50","566","","","STROOPmain","","50","2","2","868.1620120182342","1200","700","1","1","200993","201864","202430.59999996424"
"","EPstroop","76","204377","0.0-8.51-0.51","445","","","STROOPmain","","51","2","2","954.4802128660073","1200","700","1","1","203137.59999996424","204096.69999998808","204542.09999996424"
"","EPstroop","77","206377","0.0-8.52-0.52","528","","","STROOPmain","","52","1","1","747.9995176152254","1200","700","1","1","205249.69999998808","206014.69999998808","206542.59999996424"
"","EPstroop","78","208777","0.0-8.53-0.53","742","","","STROOPmain","","53","0","2","948.4025542829283","1200","700","0","0","207249.69999998808","208200.29999995232","208942.5"
"","EPstroop","79","210728","0.0-8.54-0.54","494","","","STROOPmain","","54","2","2","744.1916756407602","1200","700","1","1","209648.89999997616","210400.69999998808","210895"
"","EPstroop","80","212777","0.0-8.55-0.55","447","","","STROOPmain","","55","1","1","888.1993283989055","1200","700","1","1","211600.29999995232","212495.79999995232","212942.79999995232"
"","EPstroop","81","214905","0.0-8.56-0.56","558","","","STROOPmain","","56","1","2","855.649997229417","1200","700","1","0","213649.69999998808","214512.79999995232","215070.79999995232"
"","EPstroop","82","216793","0.0-8.57-0.57","454","","","STROOPmain","","57","1","1","721.2667507028192","1200","700","1","1","215777.89999997616","216504.5","216958.69999998808"
"","EPstroop","83","218728","0.0-8.58-0.58","518","","","STROOPmain","","58","1","1","707.1404655582055","1200","700","1","1","217665.69999998808","218376.19999998808","218894.59999996424"
"","EPstroop","84","220809","0.0-8.59-0.59","525","","","STROOPmain","","59","2","0","841.7470611125703","1200","700","1","0","219600.89999997616","220448.29999995232","220973.69999998808"
"","EPstroop","85","223225","0.0-8.60-0.60","646","","","STROOPmain","","60","0","0","1061.6420137386285","1200","700","1","1","221681.89999997616","222744.29999995232","223390.69999998808"
"","EPstroop","86","225369","0.0-8.61-0.61","613","","","STROOPmain","","61","0","0","821.5932339584041","1200","700","1","1","224097.09999996424","224920.59999996424","225533.59999996424"
"","EPstroop","87","227640","0.0-8.62-0.62","669","","","STROOPmain","","62","2","2","889.2662919152327","1200","700","1","1","226241.59999996424","227136","227805.39999997616"
"","EPstroop","88","229753","0.0-8.63-0.63","518","","","STROOPmain","","63","1","1","882.131731580633","1200","700","1","1","228512.89999997616","229400.19999998808","229918.59999996424"
"","EPstroop","89","231849","0.0-8.64-0.64","405","","","STROOPmain","","64","0","0","979.467427622065","1200","700","1","1","230625.69999998808","231608.89999997616","232013.79999995232"
"","EPstroop","90","233769","0.0-8.65-0.65","358","","","STROOPmain","","65","1","1","847.9865835964908","1200","700","1","1","232720.59999996424","233576.69999998808","233934.59999996424"
"","EPstroop","91","235753","0.0-8.66-0.66","454","","","STROOPmain","","66","0","1","819.820243261896","1200","700","1","0","234641.39999997616","235464.29999995232","235918.59999996424"
"","EPstroop","92","237833","0.0-8.67-0.67","374","","","STROOPmain","","67","0","0","992.24866201642","1200","700","0","1","236625.79999995232","237624","237998.29999995232"
"","EPstroop","93","239689","0.0-8.68-0.68","389","","","STROOPmain","","68","0","0","753.4978787590724","1200","700","1","1","238705","239464.5","239853.5"
"","EPstroop","94","242025","0.0-8.69-0.69","654","","","STROOPmain","","69","2","2","969.9515443204348","1200","700","1","1","240561.19999998808","241536.19999998808","242190.09999996424"
"","EPstroop","95","244697","0.0-8.70-0.70","950","","","STROOPmain","","70","2","1","1008.3801410426872","1200","700","1","0","242897.59999996424","243912.79999995232","244862.79999995232"
"","EPstroop","96","247416","0.0-8.71-0.71","-1","","","STROOPmain","","71","1","2","801.7335490366756","1200","700","-1","0","245569.5","246377","247584.09999996424"
"true","fullscreen","97","248425","0.0-9.0","","","","","","","","","","","","","","","",""
"","external-html","98","328655","0.0-10.0","80005","","./STROOP_html/endscreen.html","endscreen","","","","","","","","","","","",""
