"success","trial_type","trial_index","time_elapsed","internal_node_id","rt","keypressed","url","trial_tag","value","tnum","string","color","fixdur","respdelay","feedbackdur","correct","congruent","startTime","displayTime","feedbackTime"
"true","fullscreen","0","3011","0.0-0.0","","","","","","","","","","","","","","","",""
"","external-html","1","11514","0.0-1.0-0.0","8609","-1","STROOP_html/welcome1.html","instructions","","","","","","","","","","","",""
"","external-html","2","17754","0.0-2.0-0.0","6179","-1","STROOP_html/welcome2.html","instructions","","","","","","","","","","","",""
"","call-function","3","17865","0.0-3.0","","","","","105.90000000002328","","","","","","","","","","",""
"","EPstroop","4","20698","0.0-4.0-0.0","-1","","","STROOPtrain","","0","0","1","874.9409811822129","1200","700","-1","0","18287.699999999953","19180.5","20400.199999999953"
"","EPstroop","5","23388","0.0-4.1-0.1","-1","","","STROOPtrain","","0","1","1","748.3165082525734","1200","700","-1","1","21121.599999999977","21880.399999999907","23090.399999999907"
"","EPstroop","6","26118","0.0-4.2-0.2","1113","","","STROOPtrain","","0","2","2","881.2010293693536","1200","700","1","1","23810.599999999977","24710.29999999993","25823.199999999953"
"","EPstroop","7","28838","0.0-4.3-0.3","922","","","STROOPtrain","","0","2","2","1061.6013307991202","1200","700","1","1","26541.29999999993","27620.199999999953","28542"
"","EPstroop","8","31514","0.0-4.4-0.4","1081","","","STROOPtrain","","0","0","0","879.8243477104525","1200","700","1","1","29261.5","30149.899999999907","31231.099999999977"
"","EPstroop","9","34162","0.0-4.5-0.5","-1","","","STROOPtrain","","0","0","2","734.3943362079073","1200","700","-1","0","31937.199999999953","32672.79999999993","33880"
"","EPstroop","10","36938","0.0-4.6-0.6","1055","","","STROOPtrain","","0","1","1","1011.3546196961721","1200","700","1","1","34585.5","35600.29999999993","36655"
"","EPstroop","11","39690","0.0-4.7-0.7","966","","","STROOPtrain","","0","1","1","1078.4928864765407","1200","700","1","1","37361.5","38441","39407.29999999993"
"","EPstroop","12","42307","0.0-4.8-0.8","-1","","","STROOPtrain","","0","2","0","703.0797102493123","1200","700","-1","0","40112.5","40816.29999999993","42024.79999999993"
"","EPstroop","13","45060","0.0-4.9-0.9","-1","","","STROOPtrain","","0","1","2","836.9142361717777","1200","700","-1","0","42729.69999999995","43568.89999999991","44775.89999999991"
"","EPstroop","14","47738","0.0-4.10-0.10","1030","","","STROOPtrain","","0","0","0","934.3890548414197","1200","700","1","1","45482.59999999998","46424.79999999993","47455.19999999995"
"","EPstroop","15","50075","0.0-4.11-0.11","894","","","STROOPtrain","","0","2","2","731.3748757750533","1200","700","1","1","48161.19999999995","48896.79999999993","49790.5"
"","EPstroop","16","53074","0.0-4.12-0.12","-1","","","STROOPtrain","","0","1","0","1078.0125834018172","1200","700","-1","0","50498.19999999995","51584.59999999998","52793.79999999993"
"","EPstroop","17","55675","0.0-4.13-0.13","887","","","STROOPtrain","","0","2","2","1003.7334515903347","1200","700","1","1","53497.59999999998","54504.59999999998","55391.39999999991"
"","EPstroop","18","58202","0.0-4.14-0.14","941","","","STROOPtrain","","0","0","0","876.373732729689","1200","700","1","1","56098.39999999991","56977.39999999991","57918.29999999993"
"","EPstroop","19","61130","0.0-4.15-0.15","-1","","","STROOPtrain","","0","2","1","1012.5560988757893","1200","700","-1","0","58625.39999999991","59641.29999999993","60849.59999999998"
"","EPstroop","20","63674","0.0-4.16-0.16","1007","","","STROOPtrain","","0","1","1","824.6181948409226","1200","700","1","1","61553.29999999993","62384.29999999993","63391.09999999998"
"","EPstroop","21","66202","0.0-4.17-0.17","1063","","","STROOPtrain","","0","0","0","757.69241510739","1200","700","1","1","64097.19999999995","64856.5","65919.5"
"","external-html","22","73297","0.0-5.0-0.0","4118","-1","STROOP_html/welcome3.html","instructions","","","","","","","","","","","",""
"","call-function","23","73348","0.0-6.0","","","","","46.29999999993015","","","","","","","","","","",""
"","call-function","24","73511","0.0-7.0","","","","","162","","","","","","","","","","",""
"","EPstroop","25","76146","0.0-8.0-0.0","-1","","","STROOPmain","","0","1","2","714.7922222230418","1200","700","-1","0","74038.69999999995","74760.09999999998","75967.8999999999"
"","EPstroop","26","78902","0.0-8.1-0.1","966","","","STROOPmain","","1","0","0","1055.0377276978304","1200","700","1","1","76673.79999999993","77736.69999999995","78709"
"","EPstroop","27","81746","0.0-8.2-0.2","-1","","","STROOPmain","","2","1","1","923.9201733853819","1200","700","-1","1","79429.19999999995","80360.09999999998","81568.69999999995"
"","EPstroop","28","84514","0.0-8.3-0.3","-1","","","STROOPmain","","3","1","0","849.5198823097472","1200","700","-1","0","82273.59999999998","83128.59999999998","84336.09999999998"
"","EPstroop","29","87042","0.0-8.4-0.4","855","","","STROOPmain","","4","2","2","963.4394393126063","1200","700","1","1","85041.5","86008.79999999993","86863.79999999993"
"","EPstroop","30","89571","0.0-8.5-0.5","967","","","STROOPmain","","5","0","0","854.5800488024781","1200","700","1","1","87568.8999999999","88424.5","89391.5"
"","EPstroop","31","92323","0.0-8.6-0.6","942","","","STROOPmain","","6","2","2","1098.1718638239288","1200","700","1","1","90098.09999999998","91201.3999999999","92143.69999999995"
"","EPstroop","32","95257","0.0-8.7-0.7","-1","","","STROOPmain","","7","0","2","1015.0250594421941","1200","700","-1","0","92850.69999999995","93872.59999999998","95080.79999999993"
"","EPstroop","33","97986","0.0-8.8-0.8","950","","","STROOPmain","","8","0","0","1065.9394199918747","1200","700","1","1","95784.29999999993","96856.5","97806.69999999995"
"","EPstroop","34","100778","0.0-8.9-0.9","-1","","","STROOPmain","","9","1","0","875.3470099698357","1200","700","-1","0","98512.8999999999","99394.19999999995","100600.5"
"","EPstroop","35","103753","0.0-8.10-0.10","-1","","","STROOPmain","","10","0","1","1055.1217305097025","1200","700","-1","0","101305.3999999999","102368.69999999995","103576.79999999993"
"","EPstroop","36","106449","0.0-8.11-0.11","-1","","","STROOPmain","","11","2","1","781.4020945511305","1200","700","-1","0","104281.09999999998","105064.5","106273.5"
"","EPstroop","37","109288","0.0-8.12-0.12","-1","","","STROOPmain","","12","2","1","915.5613598720909","1200","700","-1","0","106977.09999999998","107896.8999999999","109104.8999999999"
"","EPstroop","38","112298","0.0-8.13-0.13","-1","","","STROOPmain","","13","1","1","1082.5559275638218","1200","700","-1","1","109815.09999999998","110904.59999999998","112119.8999999999"
"","EPstroop","39","115154","0.0-8.14-0.14","-1","","","STROOPmain","","14","0","1","940.3222033624652","1200","700","-1","0","112825.79999999993","113768.69999999995","114979"
"","EPstroop","40","117938","0.0-8.15-0.15","1032","","","STROOPmain","","15","0","0","1035.9724868307935","1200","700","1","1","115681.8999999999","116727.19999999995","117759.3999999999"
"","EPstroop","41","120210","0.0-8.16-0.16","734","","","STROOPmain","","16","0","0","830.2067334988743","1200","700","1","1","118465.29999999993","119296.19999999995","120030.5"
"","EPstroop","42","122754","0.0-8.17-0.17","831","","","STROOPmain","","17","0","0","1005.4268015852698","1200","700","1","1","120737.8999999999","121744.09999999998","122575.59999999998"
"","EPstroop","43","125657","0.0-8.18-0.18","-1","","","STROOPmain","","18","2","0","983.0969879424823","1200","700","-1","0","123282","124273","125480.3999999999"
"","EPstroop","44","128281","0.0-8.19-0.19","-1","","","STROOPmain","","19","1","0","709.2121298867711","1200","700","-1","0","126184.3999999999","126896.3999999999","128104.29999999993"
"","EPstroop","45","131034","0.0-8.20-0.20","-1","","","STROOPmain","","20","2","0","819.1177170203705","1200","700","-1","0","128809","129648.19999999995","130856.8999999999"
"","EPstroop","46","133474","0.0-8.21-0.21","854","","","STROOPmain","","21","0","0","874.5987486843919","1200","700","1","1","131561.79999999993","132440.8999999999","133295.19999999995"
"","EPstroop","47","136273","0.0-8.22-0.22","1006","","","STROOPmain","","22","1","1","1082.1841163760128","1200","700","1","1","134002.09999999998","135088.69999999995","136095.19999999995"
"","EPstroop","48","138657","0.0-8.23-0.23","742","","","STROOPmain","","23","1","1","931.8548230949896","1200","700","1","1","136801.29999999993","137736.3999999999","138478.3999999999"
"","EPstroop","49","141394","0.0-8.24-0.24","1070","","","STROOPmain","","24","1","2","955.3924924764101","1200","700","1","0","139185.5","140144.8999999999","141215.5"
"","EPstroop","50","143745","0.0-8.25-0.25","918","","","STROOPmain","","25","0","0","721.1594213922589","1200","700","1","1","141920.8999999999","142648.59999999998","143566.3999999999"
"","EPstroop","51","146161","0.0-8.26-0.26","847","","","STROOPmain","","26","0","0","861.5283387901203","1200","700","1","1","144273.5","145136.69999999995","145983.5"
"","EPstroop","52","148337","0.0-8.27-0.27","751","","","STROOPmain","","27","0","0","711.8643010951084","1200","700","1","1","146688.8999999999","147408","148158.79999999993"
"","EPstroop","53","150674","0.0-8.28-0.28","670","","","STROOPmain","","28","0","0","956.2906632094744","1200","700","1","1","148864.5","149824.59999999998","150494.69999999995"
"","EPstroop","54","153122","0.0-8.29-0.29","926","","","STROOPmain","","29","2","2","809.9409054598012","1200","700","1","1","151201.8999999999","152016.8999999999","152943.5"
"","EPstroop","55","155345","0.0-8.30-0.30","766","","","STROOPmain","","30","2","2","742.5551879032881","1200","700","1","1","153649.09999999998","154400.19999999995","155166.3999999999"
"","EPstroop","56","158257","0.0-8.31-0.31","1190","","","STROOPmain","","31","2","0","1010.072450912326","1200","700","1","0","155873.09999999998","156888.29999999993","158079"
"","EPstroop","57","161050","0.0-8.32-0.32","-1","","","STROOPmain","","32","2","1","878.4513800371742","1200","700","-1","0","158785.19999999995","159664.59999999998","160872.8999999999"
"","EPstroop","58","163697","0.0-8.33-0.33","967","","","STROOPmain","","33","2","2","970.7035588154793","1200","700","1","1","161577.8999999999","162552.59999999998","163519.5"
"","EPstroop","59","166562","0.0-8.34-0.34","-1","","","STROOPmain","","34","1","2","930.057587528172","1200","700","-1","0","164225.19999999995","165160.69999999995","166382.8999999999"
"","EPstroop","60","169202","0.0-8.35-0.35","902","","","STROOPmain","","35","2","2","1024.1258116529318","1200","700","1","1","167089.09999999998","168120.5","169023.09999999998"
"","EPstroop","61","171570","0.0-8.36-0.36","854","","","STROOPmain","","36","0","0","800.6211810116364","1200","700","1","1","169729.79999999993","170536.5","171391.19999999995"
"","EPstroop","62","174313","0.0-8.37-0.37","-1","","","STROOPmain","","37","1","2","825.6197391898637","1200","700","-1","0","172097.8999999999","172928.19999999995","174136.3999999999"
"","EPstroop","63","176978","0.0-8.38-0.38","1143","","","STROOPmain","","38","1","1","811.27359107438","1200","700","1","1","174841.3999999999","175656.19999999995","176799.09999999998"
"","EPstroop","64","179267","0.0-8.39-0.39","814","","","STROOPmain","","39","1","1","765.2267573258166","1200","700","1","1","177506.09999999998","178273.09999999998","179087.09999999998"
"","EPstroop","65","182267","0.0-8.40-0.40","-1","","","STROOPmain","","40","0","1","1084.50386982657","1200","700","-1","0","179794.69999999995","180880.29999999993","182088.29999999993"
"","EPstroop","66","185154","0.0-8.41-0.41","1095","","","STROOPmain","","41","0","0","1083.8764268947755","1200","700","1","1","182794.3999999999","183880.59999999998","184975.5"
"","EPstroop","67","187938","0.0-8.42-0.42","1024","","","STROOPmain","","42","2","1","1033.8531416034675","1200","700","0","0","185681.59999999998","186734.59999999998","187758.8999999999"
"","EPstroop","68","190402","0.0-8.43-0.43","958","","","STROOPmain","","43","1","1","791.055731896398","1200","700","1","1","188465.79999999993","189264.5","190223"
"","EPstroop","69","193116","0.0-8.44-0.44","1054","","","STROOPmain","","44","1","1","942.0779922995863","1200","700","1","1","190929.69999999995","191872.5","192927.19999999995"
"","EPstroop","70","195802","0.0-8.45-0.45","-1","","","STROOPmain","","45","0","2","767.5849698322614","1200","700","-1","0","193643.69999999995","194416.09999999998","195624.8999999999"
"","EPstroop","71","198418","0.0-8.46-0.46","1061","","","STROOPmain","","46","2","2","844.0438713175722","1200","700","1","1","196329.5","197176.8999999999","198238.09999999998"
"","EPstroop","72","200610","0.0-8.47-0.47","647","","","STROOPmain","","47","2","2","836.3503039251643","1200","700","1","1","198945.5","199784.29999999993","200431"
"","EPstroop","73","203057","0.0-8.48-0.48","958","","","STROOPmain","","48","1","1","777.8409113430548","1200","700","1","1","201136.79999999993","201920.69999999995","202879"
"","EPstroop","74","205378","0.0-8.49-0.49","839","","","STROOPmain","","49","2","2","771.2509771890151","1200","700","1","1","203585.19999999995","204360.09999999998","205199.09999999998"
"","EPstroop","75","207698","0.0-8.50-0.50","886","","","STROOPmain","","50","1","1","719.0697223856515","1200","700","1","1","205905.8999999999","206633.59999999998","207519.3999999999"
"","EPstroop","76","210291","0.0-8.51-0.51","854","","","STROOPmain","","51","2","2","1025.3241035335393","1200","700","1","1","208225.09999999998","209256.3999999999","210111"
"","EPstroop","77","213011","0.0-8.52-0.52","951","","","STROOPmain","","52","0","0","1059.687625280769","1200","700","1","1","210817.8999999999","211880","212831.09999999998"
"","EPstroop","78","215522","0.0-8.53-0.53","951","","","STROOPmain","","53","1","1","847.8542999642982","1200","700","1","1","213538.3999999999","214392.19999999995","215343.09999999998"
"","EPstroop","79","217981","0.0-8.54-0.54","854","","","STROOPmain","","54","2","2","885.3928473238436","1200","700","1","1","216048.8999999999","216937.09999999998","217791.09999999998"
"","EPstroop","80","220418","0.0-8.55-0.55","903","","","STROOPmain","","55","2","2","822.4515151878722","1200","700","1","1","218507.69999999995","219336.19999999995","220238.8999999999"
"","EPstroop","81","223055","0.0-8.56-0.56","1029","","","STROOPmain","","56","0","0","882.3741578035128","1200","700","1","1","220945.5","221833.59999999998","222863.09999999998"
"","EPstroop","82","225506","0.0-8.57-0.57","1005","","","STROOPmain","","57","1","1","733.8705150957121","1200","700","1","1","223582.3999999999","224320.8999999999","225326.09999999998"
"","EPstroop","83","228082","0.0-8.58-0.58","927","","","STROOPmain","","58","0","0","941.2255755561197","1200","700","1","1","226033.5","226976","227903.29999999993"
"","EPstroop","84","230962","0.0-8.59-0.59","-1","","","STROOPmain","","59","0","2","953.8623894969822","1200","700","-1","0","228608.8999999999","229581.29999999993","230784.19999999995"
"","EPstroop","85","233570","0.0-8.60-0.60","1110","","","STROOPmain","","60","1","1","785.0835827053332","1200","700","1","1","231489.79999999993","232281.09999999998","233391.09999999998"
"","EPstroop","86","236034","0.0-8.61-0.61","878","","","STROOPmain","","61","1","1","870.9383475434485","1200","700","1","1","234097.8999999999","234976.8999999999","235854.8999999999"
"","EPstroop","87","238826","0.0-8.62-0.62","-1","","","STROOPmain","","62","0","2","873.3629327045153","1200","700","-1","0","236562","237440.8999999999","238648.5"
"","EPstroop","88","241394","0.0-8.63-0.63","974","","","STROOPmain","","63","2","2","882.5337632145097","1200","700","1","1","239353.09999999998","240240.3999999999","241215"
"","EPstroop","89","244362","0.0-8.64-0.64","-1","","","STROOPmain","","64","1","0","1047.1136458265619","1200","700","-1","0","241921.59999999998","242976.09999999998","244183.8999999999"
"","EPstroop","90","246738","0.0-8.65-0.65","954","","","STROOPmain","","65","1","1","706.977399905888","1200","700","1","1","244889.19999999995","245604.29999999993","246559"
"","EPstroop","91","249673","0.0-8.66-0.66","-1","","","STROOPmain","","66","0","1","1021.1577936731596","1200","700","-1","0","247265.59999999998","248288.69999999995","249496.79999999993"
"","EPstroop","92","252153","0.0-8.67-0.67","934","","","STROOPmain","","67","1","1","823.492552145179","1200","700","1","1","250201.09999999998","251032.5","251966.8999999999"
"","EPstroop","93","254914","0.0-8.68-0.68","-1","","","STROOPmain","","68","2","0","841.6066095494266","1200","700","-1","0","252680.19999999995","253528.09999999998","254736.79999999993"
"","EPstroop","94","257474","0.0-8.69-0.69","1013","","","STROOPmain","","69","2","2","832.9834581744733","1200","700","1","1","255440.8999999999","256280.79999999993","257294"
"","EPstroop","95","260098","0.0-8.70-0.70","1006","","","STROOPmain","","70","2","2","909.0537805979975","1200","700","1","1","258001.5","258912.29999999993","259919"
"","EPstroop","96","262355","0.0-8.71-0.71","575","","","STROOPmain","","71","2","2","968.0419674818357","1200","700","1","1","260625.5","261600","262175.1"
"true","fullscreen","97","263362","0.0-9.0","","","","","","","","","","","","","","","",""
"","external-html","98","268216","0.0-10.0","4161","","./STROOP_html/endscreen.html","endscreen","","","","","","","","","","","",""
