"success","trial_type","trial_index","time_elapsed","internal_node_id","rt","keypressed","url","trial_tag","value","tnum","string","color","fixdur","respdelay","feedbackdur","correct","congruent","startTime","displayTime","feedbackTime"
"true","fullscreen","0","2603","0.0-0.0","","","","","","","","","","","","","","","",""
"","external-html","1","89394","0.0-1.0-0.0","86739","-1","STROOP_html/welcome1.html","instructions","","","","","","","","","","","",""
"","external-html","2","113218","0.0-2.0-0.0","23597","-1","STROOP_html/welcome2.html","instructions","","","","","","","","","","","",""
"","call-function","3","113321","0.0-3.0","","","","","98.5","","","","","","","","","","",""
"","EPstroop","4","116204","0.0-4.0-0.0","-1","","","STROOPtrain","","0","2","2","963.833604203743","1200","700","-1","1","113727.19999998808","114696.89999997616","115904.59999999404"
"","EPstroop","5","119139","0.0-4.1-0.1","1126","","","STROOPtrain","","0","1","1","1094.784950186982","1200","700","1","1","116611.19999998808","117713.69999998808","118839.39999997616"
"","EPstroop","6","121923","0.0-4.2-0.2","1022","","","STROOPtrain","","0","0","0","1054.2493207001398","1200","700","1","1","119545.5","120600.69999998808","121623.19999998808"
"","EPstroop","7","124515","0.0-4.3-0.3","942","","","STROOPtrain","","0","2","1","934.0776227173982","1200","700","0","0","122330","123273.09999999404","124215.39999997616"
"","EPstroop","8","127267","0.0-4.4-0.4","1023","","","STROOPtrain","","0","0","2","1022.4305497804737","1200","700","0","0","124921.59999999404","125944.09999999404","126967.19999998808"
"","EPstroop","9","129971","0.0-4.5-0.5","941","","","STROOPtrain","","0","1","1","1048.2530842459896","1200","700","1","1","127674","128729","129670.39999997616"
"","EPstroop","10","132515","0.0-4.6-0.6","829","","","STROOPtrain","","0","0","0","1006.3481250158239","1200","700","1","1","130376.69999998808","131385.09999999404","132214.5"
"","EPstroop","11","134914","0.0-4.7-0.7","974","","","STROOPtrain","","0","0","0","715.0870836034579","1200","700","1","1","132920.79999998212","133640.79999998212","134615.29999998212"
"","EPstroop","12","137538","0.0-4.8-0.8","1030","","","STROOPtrain","","0","2","2","886.9330275954329","1200","700","1","1","135320.5","136208.29999998212","137238.39999997616"
"","EPstroop","13","140051","0.0-4.9-0.9","806","","","STROOPtrain","","0","1","2","991.5326007760364","1200","700","0","0","137944.69999998808","138944.39999997616","139751"
"","EPstroop","14","142738","0.0-4.10-0.10","-1","","","STROOPtrain","","0","2","2","768.4643698674265","1200","700","-1","1","140457.5","141232.29999998212","142440.89999997616"
"","EPstroop","15","145515","0.0-4.11-0.11","-1","","","STROOPtrain","","0","2","0","857.1709137083673","1200","700","-1","0","143145.09999999404","144008.79999998212","145216.09999999404"
"","EPstroop","16","147890","0.0-4.12-0.12","854","","","STROOPtrain","","0","2","2","813.0041612468164","1200","700","1","1","145921.79999998212","146737","147591.29999998212"
"","EPstroop","17","150436","0.0-4.13-0.13","847","","","STROOPtrain","","0","1","1","990.3266230681331","1200","700","1","1","148296.39999997616","149288.5","150135.29999998212"
"","EPstroop","18","153354","0.0-4.14-0.14","-1","","","STROOPtrain","","0","0","1","1003.0575365592472","1200","700","-1","0","150842.39999997616","151849","153056.79999998212"
"","EPstroop","19","156163","0.0-4.15-0.15","1184","","","STROOPtrain","","0","1","0","916.390464133822","1200","700","0","0","153761.19999998808","154679.89999997616","155863.5"
"","EPstroop","20","158531","0.0-4.16-0.16","878","","","STROOPtrain","","0","0","0","782.7269791569125","1200","700","1","1","156569.09999999404","157352.79999998212","158231.29999998212"
"","EPstroop","21","161123","0.0-4.17-0.17","999","","","STROOPtrain","","0","1","1","879.6636962221435","1200","700","1","1","158938.09999999404","159824.5","160823.09999999404"
"","external-html","22","168722","0.0-5.0-0.0","7517","-1","STROOP_html/welcome3.html","instructions","","","","","","","","","","","",""
"","call-function","23","168783","0.0-6.0","","","","","55.5","","","","","","","","","","",""
"","call-function","24","168845","0.0-7.0","","","","","61.70000001788139","","","","","","","","","","",""
"","EPstroop","25","171627","0.0-8.0-0.0","1055","","","STROOPmain","","0","1","1","1004.0240057966384","1200","700","1","1","169252.29999998212","170264","171324.89999997616"
"","EPstroop","26","174403","0.0-8.1-0.1","1047","","","STROOPmain","","1","2","2","1016.3839567593254","1200","700","1","1","172034.19999998808","173056.09999999404","174103.59999999404"
"","EPstroop","27","177252","0.0-8.2-0.2","1110","","","STROOPmain","","2","2","2","1027.4516510767912","1200","700","1","1","174809","175840.89999997616","176951.59999999404"
"","EPstroop","28","179620","0.0-8.3-0.3","863","","","STROOPmain","","3","0","0","797.7051804584244","1200","700","1","1","177658","178456.39999997616","179320"
"","EPstroop","29","182068","0.0-8.4-0.4","790","","","STROOPmain","","4","1","1","942.599652028254","1200","700","1","1","180026","180977","181766.59999999404"
"","EPstroop","30","185083","0.0-8.5-0.5","-1","","","STROOPmain","","5","2","0","1096.4102909842404","1200","700","-1","0","182474.09999999404","183576.19999998808","184784.09999999404"
"","EPstroop","31","187668","0.0-8.6-0.6","823","","","STROOPmain","","6","2","0","1051.3138067262164","1200","700","1","0","185488.5","186544","187367.69999998808"
"","EPstroop","32","189716","0.0-8.7-0.7","559","","","STROOPmain","","7","0","0","774.9241446312263","1200","700","1","1","188074.19999998808","188856.19999998808","189415.09999999404"
"","EPstroop","33","191891","0.0-8.8-0.8","702","","","STROOPmain","","8","0","0","764.9632406822298","1200","700","1","1","190122.19999998808","190888.79999998212","191591.69999998808"
"","EPstroop","34","194419","0.0-8.9-0.9","1119","","","STROOPmain","","9","2","1","700.3567230614425","1200","700","1","0","192297.5","193000.29999998212","194119.59999999404"
"","EPstroop","35","197379","0.0-8.10-0.10","1158","","","STROOPmain","","10","0","2","1087.0981630111505","1200","700","1","0","194825.5","195920.29999998212","197078.89999997616"
"","EPstroop","36","200099","0.0-8.11-0.11","1015","","","STROOPmain","","11","2","2","994.7394034172102","1200","700","1","1","197785.59999999404","198784.09999999404","199799.69999998808"
"","EPstroop","37","202979","0.0-8.12-0.12","1087","","","STROOPmain","","12","1","0","1087.1937149799348","1200","700","1","0","200504.39999997616","201592.09999999404","202679.69999998808"
"","EPstroop","38","205428","0.0-8.13-0.13","925","","","STROOPmain","","13","1","0","810.2672602965824","1200","700","1","0","203385.09999999404","204202","205126.59999999404"
"","EPstroop","39","207747","0.0-8.14-0.14","863","","","STROOPmain","","14","2","2","744.5545520374494","1200","700","1","1","205834.69999998808","206584.69999998808","207447.59999999404"
"","EPstroop","40","210288","0.0-8.15-0.15","759","","","STROOPmain","","15","2","2","1056.4152594734855","1200","700","1","1","208153.29999998212","209216.89999997616","209975.89999997616"
"","EPstroop","41","212388","0.0-8.16-0.16","534","","","STROOPmain","","16","2","2","854.2465020313141","1200","700","1","1","210695","211552.89999997616","212086.79999998212"
"","EPstroop","42","214724","0.0-8.17-0.17","903","","","STROOPmain","","17","1","1","721.9148413586711","1200","700","1","1","212793.39999997616","213520.09999999404","214423.5"
"","EPstroop","43","217028","0.0-8.18-0.18","751","","","STROOPmain","","18","0","0","843.1406123892148","1200","700","1","1","215129.59999999404","215976.29999998212","216727.59999999404"
"","EPstroop","44","219507","0.0-8.19-0.19","750","","","STROOPmain","","19","1","2","1018.5381409734963","1200","700","1","0","217434.19999998808","218456.69999998808","219206.79999998212"
"","EPstroop","45","221652","0.0-8.20-0.20","516","","","STROOPmain","","20","2","2","916.8725438732667","1200","700","1","1","219913","220835.39999997616","221352"
"","EPstroop","46","224068","0.0-8.21-0.21","646","","","STROOPmain","","21","0","0","1060.910065456522","1200","700","1","1","222057.39999997616","223121.5","223767.59999999404"
"","EPstroop","47","226971","0.0-8.22-0.22","-1","","","STROOPmain","","22","2","0","982.4173853794975","1200","700","-1","0","224474.39999997616","225464.59999999404","226672.79999998212"
"","EPstroop","48","229459","0.0-8.23-0.23","775","","","STROOPmain","","23","0","0","1000.5989823772575","1200","700","1","1","227376.89999997616","228384.59999999404","229159.59999999404"
"","EPstroop","49","231828","0.0-8.24-0.24","655","","","STROOPmain","","24","2","2","998.1290239958507","1200","700","1","1","229865.79999998212","230872.89999997616","231527.89999997616"
"","EPstroop","50","234154","0.0-8.25-0.25","887","","","STROOPmain","","25","0","2","718.1385735433512","1200","700","1","0","232234.19999998808","232960.5","233847.59999999404"
"","EPstroop","51","236836","0.0-8.26-0.26","990","","","STROOPmain","","26","0","1","982.5875762019559","1200","700","1","0","234559.79999998212","235545.29999998212","236535.59999999404"
"","EPstroop","52","239572","0.0-8.27-0.27","1095","","","STROOPmain","","27","2","1","931.5091690826114","1200","700","1","0","237240.89999997616","238176","239270.69999998808"
"","EPstroop","53","241924","0.0-8.28-0.28","847","","","STROOPmain","","28","1","0","797.2384033337511","1200","700","1","0","239977.19999998808","240776.69999998808","241623.69999998808"
"","EPstroop","54","244356","0.0-8.29-0.29","727","","","STROOPmain","","29","0","0","998.5356369999785","1200","700","1","1","242329.19999998808","243328.19999998808","244055.79999998212"
"","EPstroop","55","247212","0.0-8.30-0.30","-1","","","STROOPmain","","30","1","2","942.3248339890921","1200","700","-1","0","244761.19999998808","245704.89999997616","246913.09999999404"
"","EPstroop","56","249797","0.0-8.31-0.31","901","","","STROOPmain","","31","1","1","966.7906550170219","1200","700","1","1","247617.69999998808","248593.19999998808","249494.39999997616"
"","EPstroop","57","251908","0.0-8.32-0.32","591","","","STROOPmain","","32","0","0","810.274766242245","1200","700","1","1","250201.79999998212","251016.59999999404","251607.69999998808"
"","EPstroop","58","254260","0.0-8.33-0.33","846","","","STROOPmain","","33","2","2","795.9809216207882","1200","700","1","1","252313.69999998808","253112.89999997616","253958.69999998808"
"","EPstroop","59","256740","0.0-8.34-0.34","991","","","STROOPmain","","34","2","0","776.2704512445969","1200","700","1","0","254665.39999997616","255448.79999998212","256439.69999998808"
"","EPstroop","60","258916","0.0-8.35-0.35","591","","","STROOPmain","","35","2","2","873.4087175274315","1200","700","1","1","257145.69999998808","258024","258615.59999999404"
"","EPstroop","61","261237","0.0-8.36-0.36","854","","","STROOPmain","","36","1","1","753.0938863417067","1200","700","1","1","259321.29999998212","260081","260935.59999999404"
"","EPstroop","62","263397","0.0-8.37-0.37","533","","","STROOPmain","","37","0","0","916.0336861877915","1200","700","1","1","261642.19999998808","262561.5","263094.6999999881"
"","EPstroop","63","265445","0.0-8.38-0.38","622","","","STROOPmain","","38","2","2","714.3394773048607","1200","700","1","1","263802","264520.2999999821","265142.7999999821"
"","EPstroop","64","267813","0.0-8.39-0.39","727","","","STROOPmain","","39","0","1","926.9942317459293","1200","700","1","0","265850.09999999404","266784.1999999881","267511.59999999404"
"","EPstroop","65","270228","0.0-8.40-0.40","720","","","STROOPmain","","40","2","2","984.5631685961199","1200","700","1","1","268217.89999997616","269207.89999997616","269927.6999999881"
"","EPstroop","66","272724","0.0-8.41-0.41","879","","","STROOPmain","","41","0","2","911.7169201663521","1200","700","1","0","270632.39999997616","271544.7999999821","272423.59999999404"
"","EPstroop","67","275629","0.0-8.42-0.42","-1","","","STROOPmain","","42","1","1","977.3584129078488","1200","700","-1","1","273129.09999999404","274124.09999999404","275328.59999999404"
"","EPstroop","68","278524","0.0-8.43-0.43","-1","","","STROOPmain","","43","0","1","981.3939815229562","1200","700","-1","0","276033.89999997616","277016.2999999821","278224.1999999881"
"","EPstroop","69","281220","0.0-8.44-0.44","-1","","","STROOPmain","","44","2","1","782.1394057975638","1200","700","-1","0","278929.2999999821","279712.59999999404","280920.1999999881"
"","EPstroop","70","284189","0.0-8.45-0.45","-1","","","STROOPmain","","45","0","2","1050.2227963202583","1200","700","-1","0","281625.5","282680","283888.39999997616"
"","EPstroop","71","286389","0.0-8.46-0.46","711","","","STROOPmain","","46","0","0","776.9567441120814","1200","700","1","1","284594.1999999881","285376.7999999821","286087.6999999881"
"","EPstroop","72","289141","0.0-8.47-0.47","1095","","","STROOPmain","","47","1","1","948.10282283967","1200","700","1","1","286793.5","287744.1999999881","288839"
"","EPstroop","73","291461","0.0-8.48-0.48","631","","","STROOPmain","","48","0","0","980.5645518051067","1200","700","1","1","289546","290528.5","291159.59999999404"
"","EPstroop","74","293956","0.0-8.49-0.49","751","","","STROOPmain","","49","1","1","1035.6674186108246","1200","700","1","1","291865.5","292905.09999999404","293656.09999999404"
"","EPstroop","75","295990","0.0-8.50-0.50","607","","","STROOPmain","","50","0","0","715.3058254331299","1200","700","1","1","294360.6999999881","295080.89999997616","295687.6999999881"
"","EPstroop","76","298357","0.0-8.51-0.51","598","","","STROOPmain","","51","0","0","1054.9575917802167","1200","700","1","1","296394.09999999404","297457.89999997616","298055.7999999821"
"","EPstroop","77","300981","0.0-8.52-0.52","823","","","STROOPmain","","52","2","1","1092.3316035304133","1200","700","1","0","298761.59999999404","299856.89999997616","300679.7999999821"
"","EPstroop","78","303557","0.0-8.53-0.53","975","","","STROOPmain","","53","1","2","890.8356849288473","1200","700","1","0","301385.1999999881","302280.89999997616","303255.7999999821"
"","EPstroop","79","305958","0.0-8.54-0.54","902","","","STROOPmain","","54","1","1","788.77471571723","1200","700","1","1","303960.89999997616","304752.89999997616","305654.89999997616"
"","EPstroop","80","308389","0.0-8.55-0.55","822","","","STROOPmain","","55","1","1","896.2738632108048","1200","700","1","1","306361.89999997616","307265","308086.7999999821"
"","EPstroop","81","310933","0.0-8.56-0.56","750","","","STROOPmain","","56","1","1","1084.6136904164348","1200","700","1","1","308794.7999999821","309880.5","310631"
"","EPstroop","82","313237","0.0-8.57-0.57","725","","","STROOPmain","","57","1","1","865.8835831218346","1200","700","1","1","311337.39999997616","312209.2999999821","312934.59999999404"
"","EPstroop","83","315701","0.0-8.58-0.58","719","","","STROOPmain","","58","2","2","1036.377300931071","1200","700","1","1","313642","314680.6999999881","315399.6999999881"
"","EPstroop","84","317797","0.0-8.59-0.59","647","","","STROOPmain","","59","1","0","739.2074414453947","1200","700","1","0","316105.09999999404","316848.39999997616","317496"
"","EPstroop","85","320052","0.0-8.60-0.60","487","","","STROOPmain","","60","0","0","1055.8343972808832","1200","700","1","1","318201.89999997616","319264.89999997616","319751.6999999881"
"","EPstroop","86","323021","0.0-8.61-0.61","-1","","","STROOPmain","","61","1","2","1050.2854396610423","1200","700","-1","0","320456.2999999821","321513.2999999821","322720.1999999881"
"","EPstroop","87","325445","0.0-8.62-0.62","831","","","STROOPmain","","62","2","2","885.3241661670365","1200","700","1","1","323425.59999999404","324312.7999999821","325143.5"
"","EPstroop","88","328037","0.0-8.63-0.63","816","","","STROOPmain","","63","1","1","1069.2694416037493","1200","700","1","1","325849.5","326920.39999997616","327736.1999999881"
"","EPstroop","89","330485","0.0-8.64-0.64","663","","","STROOPmain","","64","0","0","1071.5568287334795","1200","700","1","1","328441.6999999881","329520.39999997616","330183.39999997616"
"","EPstroop","90","332693","0.0-8.65-0.65","790","","","STROOPmain","","65","0","0","706.1285023481927","1200","700","1","1","330889.59999999404","331600.7999999821","332390.7999999821"
"","EPstroop","91","334900","0.0-8.66-0.66","773","","","STROOPmain","","66","1","1","712.9797887822241","1200","700","1","1","333097.1999999881","333826.89999997616","334599.7999999821"
"","EPstroop","92","337270","0.0-8.67-0.67","671","","","STROOPmain","","67","1","1","989.2846440015189","1200","700","1","1","335304.39999997616","336296.6999999881","336967.7999999821"
"","EPstroop","93","339381","0.0-8.68-0.68","696","","","STROOPmain","","68","2","2","705.1799629305871","1200","700","1","1","337674.5","338384.1999999881","339080.09999999404"
"","EPstroop","94","341893","0.0-8.69-0.69","814","","","STROOPmain","","69","0","1","989.6554475808023","1200","700","1","0","339785","340776.59999999404","341590.59999999404"
"","EPstroop","95","344165","0.0-8.70-0.70","727","","","STROOPmain","","70","2","2","837.8531877009935","1200","700","1","1","342297.89999997616","343136.39999997616","343863.59999999404"
"","EPstroop","96","346661","0.0-8.71-0.71","742","","","STROOPmain","","71","1","1","1040.1280986073205","1200","700","1","1","344569.1999999881","345616.89999997616","346358.7999999821"
"true","fullscreen","97","347670","0.0-9.0","","","","","","","","","","","","","","","",""
"","external-html","98","356548","0.0-10.0","8664","","./STROOP_html/endscreen.html","endscreen","","","","","","","","","","","",""
