"success","trial_type","trial_index","time_elapsed","internal_node_id","rt","keypressed","url","trial_tag","value","tnum","string","color","fixdur","respdelay","feedbackdur","correct","congruent","startTime","displayTime","feedbackTime"
"true","fullscreen","0","4336","0.0-0.0","","","","","","","","","","","","","","","",""
"","external-html","1","12657","0.0-1.0-0.0","8256","-1","STROOP_html/welcome1.html","instructions","","","","","","","","","","","",""
"","external-html","2","17375","0.0-2.0-0.0","4633","-1","STROOP_html/welcome2.html","instructions","","","","","","","","","","","",""
"","call-function","3","17435","0.0-3.0","","","","","58.5","","","","","","","","","","",""
"","EPstroop","4","20205","0.0-4.0-0.0","-1","","","STROOPtrain","","0","1","2","821.8073448543221","1200","700","-1","0","17900","18729.20000000001","19949.29999999999"
"","EPstroop","5","22955","0.0-4.1-0.1","1089","","","STROOPtrain","","0","1","0","929.7409015334224","1200","700","1","0","20669.79999999999","21614.20000000001","22704"
"","EPstroop","6","25035","0.0-4.2-0.2","485","","","STROOPtrain","","0","1","1","877.2184699011732","1200","700","1","1","23420.70000000001","24299.29999999999","24784"
"","EPstroop","7","27085","0.0-4.3-0.3","572","","","STROOPtrain","","0","1","1","755.0849797456298","1200","700","1","1","25500.5","26259.399999999965","26831.599999999977"
"","EPstroop","8","29172","0.0-4.4-0.4","458","","","STROOPtrain","","0","1","1","913.1864477605417","1200","700","1","1","27549.70000000001","28469.5","28927.599999999977"
"","EPstroop","9","31548","0.0-4.5-0.5","694","","","STROOPtrain","","0","0","1","979.7912642594318","1200","700","1","0","29637.79999999999","30617.20000000001","31310.899999999965"
"","EPstroop","10","33788","0.0-4.6-0.6","537","","","STROOPtrain","","0","2","2","1000.7982723208554","1200","700","1","1","32013.899999999965","33014.59999999998","33551.899999999965"
"","EPstroop","11","35756","0.0-4.7-0.7","539","","","STROOPtrain","","0","0","0","727.4091903304252","1200","700","1","1","34254","34981.5","35520"
"","EPstroop","12","37891","0.0-4.8-0.8","530","","","STROOPtrain","","0","0","0","895.930703808929","1200","700","1","1","36221.79999999999","37117.899999999965","37647.59999999998"
"","EPstroop","13","39939","0.0-4.9-0.9","442","","","STROOPtrain","","0","0","0","902.4294818531762","1200","700","1","1","38349.70000000001","39253.20000000001","39695.79999999999"
"","EPstroop","14","42067","0.0-4.10-0.10","443","","","STROOPtrain","","0","0","0","982.466615768795","1200","700","1","1","40397.70000000001","41380.399999999965","41823.70000000001"
"","EPstroop","15","44434","0.0-4.11-0.11","652","","","STROOPtrain","","0","2","0","1013.0003923730278","1200","700","1","0","42525.29999999999","43539","44190.70000000001"
"","EPstroop","16","46803","0.0-4.12-0.12","937","","","STROOPtrain","","0","2","1","730.1207750689565","1200","700","1","0","44892.29999999999","45623.09999999998","46560"
"","EPstroop","17","49042","0.0-4.13-0.13","475","","","STROOPtrain","","0","1","1","1062.353813088995","1200","700","1","1","47261.70000000001","48324.20000000001","48799"
"","EPstroop","18","51251","0.0-4.14-0.14","499","","","STROOPtrain","","0","2","2","1007.2323411808402","1200","700","1","1","49501","50508.70000000001","51007.70000000001"
"","EPstroop","19","53331","0.0-4.15-0.15","513","","","STROOPtrain","","0","2","2","864.5754952193871","1200","700","1","1","51709.5","52574.399999999965","53087.79999999999"
"","EPstroop","20","55267","0.0-4.16-0.16","455","","","STROOPtrain","","0","2","2","778.3094227158448","1200","700","1","1","53789.70000000001","54568.29999999999","55023.59999999998"
"","EPstroop","21","57347","0.0-4.17-0.17","483","","","STROOPtrain","","0","0","2","894.063861570232","1200","700","1","0","55725.5","56620.79999999999","57103.899999999965"
"","external-html","22","60822","0.0-5.0-0.0","3399","-1","STROOP_html/welcome3.html","instructions","","","","","","","","","","","",""
"","call-function","23","60895","0.0-6.0","","","","","67.09999999997672","","","","","","","","","","",""
"","call-function","24","61071","0.0-7.0","","","","","175.30000000004657","","","","","","","","","","",""
"","EPstroop","25","63398","0.0-8.0-0.0","884","","","STROOPmain","","0","1","1","736.8937182602815","1200","700","1","1","61530.09999999998","62267.20000000001","63154.5"
"","EPstroop","26","65907","0.0-8.1-0.1","750","","","STROOPmain","","1","1","2","1057.9132345966689","1200","700","1","0","63856.5","64913.899999999965","65664"
"","EPstroop","27","68195","0.0-8.2-0.2","546","","","STROOPmain","","2","0","0","1039.6504007134367","1200","700","1","1","66366.09999999998","67406.20000000001","67952.29999999999"
"","EPstroop","28","70355","0.0-8.3-0.3","578","","","STROOPmain","","3","1","1","878.75758671974","1200","700","1","1","68653.89999999997","69533.09999999998","70111.20000000001"
"","EPstroop","29","72516","0.0-8.4-0.4","582","","","STROOPmain","","4","0","0","875.4359176853793","1200","700","1","1","70814","71690","72272.09999999998"
"","EPstroop","30","75139","0.0-8.5-0.5","852","","","STROOPmain","","5","0","1","1069.2477193553882","1200","700","1","0","72974.5","74043.89999999997","74896"
"","EPstroop","31","77331","0.0-8.6-0.6","482","","","STROOPmain","","6","0","0","1007.4219869149001","1200","700","1","1","75597.89999999997","76605.5","77088"
"","EPstroop","32","79652","0.0-8.7-0.7","533","","","STROOPmain","","7","0","0","1086.3521992828585","1200","700","1","1","77788.70000000001","78875.09999999998","79408.09999999998"
"","EPstroop","33","81811","0.0-8.8-0.8","675","","","STROOPmain","","8","2","2","782.4428095020351","1200","700","1","1","80110.20000000001","80893.20000000001","81568"
"","EPstroop","34","84004","0.0-8.9-0.9","497","","","STROOPmain","","9","1","1","993.402980320282","1200","700","1","1","82269.09999999998","83262.59999999998","83760.09999999998"
"","EPstroop","35","86147","0.0-8.10-0.10","718","","","STROOPmain","","10","2","1","722.557950284614","1200","700","1","0","84462.20000000001","85185.39999999997","85903.89999999997"
"","EPstroop","36","88290","0.0-8.11-0.11","477","","","STROOPmain","","11","1","1","963.9090592611158","1200","700","1","1","86605.89999999997","87570.09999999998","88047"
"","EPstroop","37","90244","0.0-8.12-0.12","475","","","STROOPmain","","12","1","1","776.7901226267937","1200","700","1","1","88748.39999999997","89525.09999999998","90000.29999999999"
"","EPstroop","38","92402","0.0-8.13-0.13","394","","","STROOPmain","","13","1","1","1062.9679414556026","1200","700","1","1","90701.79999999999","91765.09999999998","92159.09999999998"
"","EPstroop","39","94451","0.0-8.14-0.14","364","","","STROOPmain","","14","1","1","982.8375064633906","1200","700","1","1","92860.29999999999","93843.29999999999","94207.09999999998"
"","EPstroop","40","96675","0.0-8.15-0.15","596","","","STROOPmain","","15","0","0","925.6460095066676","1200","700","1","1","94909.39999999997","95835.79999999999","96432"
"","EPstroop","41","98954","0.0-8.16-0.16","519","","","STROOPmain","","16","0","2","1050.361956160169","1200","700","1","0","97133.89999999997","98184.20000000001","98703.89999999997"
"","EPstroop","42","101034","0.0-8.17-0.17","617","","","STROOPmain","","17","1","0","760.9913035022676","1200","700","1","0","99405.5","100165.89999999997","100783.09999999998"
"","EPstroop","43","103194","0.0-8.18-0.18","593","","","STROOPmain","","18","1","2","865.2216759612825","1200","700","1","0","101484.20000000001","102350.29999999999","102943.20000000001"
"","EPstroop","44","105419","0.0-8.19-0.19","547","","","STROOPmain","","19","1","1","974.9702479373467","1200","700","1","1","103645.20000000001","104620.59999999998","105168"
"","EPstroop","45","107724","0.0-8.20-0.20","686","","","STROOPmain","","20","0","0","914.2621193897905","1200","700","1","1","105869.89999999997","106785.70000000001","107472"
"","EPstroop","46","109931","0.0-8.21-0.21","502","","","STROOPmain","","21","2","2","1002.1812393787293","1200","700","1","1","108174.70000000001","109178.09999999998","109680"
"","EPstroop","47","112219","0.0-8.22-0.22","684","","","STROOPmain","","22","2","0","901.4061824678178","1200","700","1","0","110382","111284.20000000001","111968.20000000001"
"","EPstroop","48","114411","0.0-8.23-0.23","494","","","STROOPmain","","23","0","0","995.4668992390658","1200","700","1","1","112669.89999999997","113665.89999999997","114160"
"","EPstroop","49","116491","0.0-8.24-0.24","634","","","STROOPmain","","24","1","0","744.5955815650364","1200","700","1","0","114861.20000000001","115606","116240"
"","EPstroop","50","118651","0.0-8.25-0.25","445","","","STROOPmain","","25","0","0","1012.3059940434579","1200","700","1","1","116942","117954.89999999997","118399.89999999997"
"","EPstroop","51","121083","0.0-8.26-0.26","728","","","STROOPmain","","26","2","2","1001.1142305770568","1200","700","1","1","119102.09999999998","120103.79999999999","120831.59999999998"
"","EPstroop","52","123339","0.0-8.27-0.27","823","","","STROOPmain","","27","2","1","730.8458844050201","1200","700","1","0","121534.20000000001","122264.89999999997","123088.20000000001"
"","EPstroop","53","125418","0.0-8.28-0.28","517","","","STROOPmain","","28","0","0","860.2485041164555","1200","700","1","1","123789.70000000001","124650.70000000001","125167.70000000001"
"","EPstroop","54","127979","0.0-8.29-0.29","814","","","STROOPmain","","29","0","1","1045.3155354033315","1200","700","1","0","125868.59999999998","126914.20000000001","127728"
"","EPstroop","55","130250","0.0-8.30-0.30","496","","","STROOPmain","","30","2","2","1072.261826263546","1200","700","1","1","128429.79999999999","129503.29999999999","129999.89999999997"
"","EPstroop","56","132347","0.0-8.31-0.31","672","","","STROOPmain","","31","1","1","722.6467246666008","1200","700","1","1","130701.09999999998","131423.39999999997","132096"
"","EPstroop","57","134554","0.0-8.32-0.32","647","","","STROOPmain","","32","2","2","858.7263833417522","1200","700","1","1","132797.7","133656.7","134304.2"
"","EPstroop","58","136682","0.0-8.33-0.33","404","","","STROOPmain","","33","2","1","1021.5897392908967","1200","700","1","0","135005","136026.59999999998","136430.89999999997"
"","EPstroop","59","138714","0.0-8.34-0.34","437","","","STROOPmain","","34","0","2","894.4974817792967","1200","700","1","0","137132.3","138026.89999999997","138463.8"
"","EPstroop","60","140762","0.0-8.35-0.35","597","","","STROOPmain","","35","0","1","749.7546997828165","1200","700","1","0","139165.09999999998","139914.89999999997","140511.7"
"","EPstroop","61","143022","0.0-8.36-0.36","473","","","STROOPmain","","36","0","0","1081.8832680192145","1200","700","1","1","141212.8","142295","142767.89999999997"
"","EPstroop","62","145035","0.0-8.37-0.37","499","","","STROOPmain","","37","0","0","811.5985238664246","1200","700","1","1","143472.8","144284.5","144784.2"
"","EPstroop","63","147147","0.0-8.38-0.38","423","","","STROOPmain","","38","0","0","985.6771956885948","1200","700","1","1","145485.8","146472.59999999998","146896"
"","EPstroop","64","149434","0.0-8.39-0.39","705","","","STROOPmain","","39","1","2","880.2190070844365","1200","700","1","0","147597.7","148478.8","149183.89999999997"
"","EPstroop","65","151578","0.0-8.40-0.40","467","","","STROOPmain","","40","1","1","974.8767574156858","1200","700","1","1","149885.7","150860.3","151327.39999999997"
"","EPstroop","66","153754","0.0-8.41-0.41","513","","","STROOPmain","","41","2","2","960.2629889135907","1200","700","1","1","152029.59999999998","152990.7","153503.7"
"","EPstroop","67","156219","0.0-8.42-0.42","973","","","STROOPmain","","42","1","0","789.3333048260752","1200","700","1","0","154205.39999999997","154995.5","155968.5"
"","EPstroop","68","158370","0.0-8.43-0.43","503","","","STROOPmain","","43","2","0","938.8402475793421","1200","700","1","0","156670","157608.5","158112"
"","EPstroop","69","160450","0.0-8.44-0.44","620","","","STROOPmain","","44","2","2","757.0988903728384","1200","700","1","1","158813.89999999997","159571.5","160192"
"","EPstroop","70","162737","0.0-8.45-0.45","623","","","STROOPmain","","45","2","2","963.3209267328227","1200","700","1","1","160893.2","161857.2","162480"
"","EPstroop","71","165185","0.0-8.46-0.46","795","","","STROOPmain","","46","1","1","950.3101431291819","1200","700","1","1","163180.89999999997","164132.8","164928"
"","EPstroop","72","167234","0.0-8.47-0.47","496","","","STROOPmain","","47","1","1","849.7272654254762","1200","700","1","1","165629.7","166479.59999999998","166976.09999999998"
"","EPstroop","73","169442","0.0-8.48-0.48","517","","","STROOPmain","","48","0","0","987.2441903163506","1200","700","1","1","167678.3","168666.2","169183.8"
"","EPstroop","74","171457","0.0-8.49-0.49","553","","","STROOPmain","","49","2","2","759.7219851318514","1200","700","1","1","169886.09999999998","170646.39999999997","171199.39999999997"
"","EPstroop","75","173697","0.0-8.50-0.50","564","","","STROOPmain","","50","0","0","969.2238445649466","1200","700","1","1","171900.3","172875.5","173439.89999999997"
"","EPstroop","76","175810","0.0-8.51-0.51","706","","","STROOPmain","","51","1","1","704.2783991970506","1200","700","1","1","174141.39999999997","174846.09999999998","175551.99999999994"
"","EPstroop","77","177842","0.0-8.52-0.52","481","","","STROOPmain","","52","0","1","847.4057645827825","1200","700","1","0","176253.99999999994","177102.8","177584.10000000003"
"","EPstroop","78","179970","0.0-8.53-0.53","709","","","STROOPmain","","53","2","0","716.4743107518126","1200","700","1","0","178285.99999999994","179002.8","179711.89999999997"
"","EPstroop","79","182082","0.0-8.54-0.54","530","","","STROOPmain","","54","0","0","878.2754970287482","1200","700","1","1","180413.3","181293.3","181823.89999999997"
"","EPstroop","80","184609","0.0-8.55-0.55","904","","","STROOPmain","","55","2","2","921.6453532294888","1200","700","1","1","182526.2","183447.8","184351.89999999997"
"","EPstroop","81","186770","0.0-8.56-0.56","533","","","STROOPmain","","56","2","2","924.8742789335167","1200","700","1","1","185053.49999999994","185978.7","186511.99999999994"
"","EPstroop","82","188865","0.0-8.57-0.57","410","","","STROOPmain","","57","0","2","971.4941829331207","1200","700","1","0","187213.99999999994","188198.3","188608.2"
"","EPstroop","83","190769","0.0-8.58-0.58","471","","","STROOPmain","","58","2","2","731.2924009137502","1200","700","1","1","189309.60000000003","190041.3","190512.10000000003"
"","EPstroop","84","192769","0.0-8.59-0.59","571","","","STROOPmain","","59","2","0","725.0222045495959","1200","700","1","0","191213.7","191939.99999999994","192510.99999999994"
"","EPstroop","85","194850","0.0-8.60-0.60","392","","","STROOPmain","","60","1","1","986.2221097893391","1200","700","1","1","193213.39999999997","194199.8","194591.99999999994"
"","EPstroop","86","197281","0.0-8.61-0.61","709","","","STROOPmain","","61","1","0","1020.9000308627406","1200","700","1","0","195294.10000000003","196315.10000000003","197023.99999999994"
"","EPstroop","87","199539","0.0-8.62-0.62","714","","","STROOPmain","","62","1","1","840.125233657275","1200","700","1","1","197724.99999999994","198565.89999999997","199280.39999999997"
"","EPstroop","88","201650","0.0-8.63-0.63","465","","","STROOPmain","","63","0","0","942.6513223951843","1200","700","1","1","199983.49999999994","200926.3","201391.39999999997"
"","EPstroop","89","203649","0.0-8.64-0.64","522","","","STROOPmain","","64","2","2","775.7436250542609","1200","700","1","1","202093.8","202869.3","203391.2"
"","EPstroop","90","205586","0.0-8.65-0.65","468","","","STROOPmain","","65","2","2","766.8434861973691","1200","700","1","1","204093.2","204860.10000000003","205327.99999999994"
"","EPstroop","91","207522","0.0-8.66-0.66","391","","","STROOPmain","","66","1","2","841.0624148279146","1200","700","1","0","206030.2","206872.89999999997","207263.89999999997"
"","EPstroop","92","209649","0.0-8.67-0.67","500","","","STROOPmain","","67","0","2","924.7939585461045","1200","700","1","0","207965.99999999994","208890.99999999994","209391.10000000003"
"","EPstroop","93","211553","0.0-8.68-0.68","391","","","STROOPmain","","68","2","2","810.6323993473742","1200","700","1","1","210092.7","210904.10000000003","211294.99999999994"
"","EPstroop","94","213969","0.0-8.69-0.69","750","","","STROOPmain","","69","1","1","956.9746221232964","1200","700","1","1","211997.2","212961.7","213711.99999999994"
"","EPstroop","95","216080","0.0-8.70-0.70","662","","","STROOPmain","","70","2","1","747.0208161853675","1200","700","1","0","214413.8","215161.39999999997","215823.10000000003"
"","EPstroop","96","218427","0.0-8.71-0.71","572","","","STROOPmain","","71","2","2","1063.3847391130607","1200","700","1","1","216523.8","217587.8","218159.99999999994"
"true","fullscreen","97","219428","0.0-9.0","","","","","","","","","","","","","","","",""
"","external-html","98","223412","0.0-10.0","3725","","./STROOP_html/endscreen.html","endscreen","","","","","","","","","","","",""
