"success","trial_type","trial_index","time_elapsed","internal_node_id","rt","keypressed","url","trial_tag","value","tnum","string","color","fixdur","respdelay","feedbackdur","correct","congruent","startTime","displayTime","feedbackTime"
"true","fullscreen","0","2051","0.0-0.0","","","","","","","","","","","","","","","",""
"","external-html","1","58878","0.0-1.0-0.0","56745","-1","STROOP_html/welcome1.html","instructions","","","","","","","","","","","",""
"","external-html","2","63866","0.0-2.0-0.0","4892","-1","STROOP_html/welcome2.html","instructions","","","","","","","","","","","",""
"","call-function","3","63956","0.0-3.0","","","","","85.6000000005588","","","","","","","","","","",""
"","EPstroop","4","66957","0.0-4.0-0.0","-1","","","STROOPtrain","","0","0","0","1085.9679917412047","1200","700","-1","1","69472.5","70561.70000000019","71770"
"","EPstroop","5","69917","0.0-4.1-0.1","-1","","","STROOPtrain","","0","1","1","1037.0812719512903","1200","700","-1","1","72475.79999999981","73521.39999999944","74729.5"
"","EPstroop","6","71980","0.0-4.2-0.2","637","","","STROOPtrain","","0","0","0","711.3503053756447","1200","700","1","1","75434.89999999944","76153.79999999981","76792.89999999944"
"","EPstroop","7","74061","0.0-4.3-0.3","397","","","STROOPtrain","","0","2","2","968.590425535119","1200","700","1","1","77497.5","78473.59999999963","78870.39999999944"
"","EPstroop","8","76396","0.0-4.4-0.4","765","","","STROOPtrain","","0","0","1","855.9049992599039","1200","700","1","0","79578.39999999944","80441.39999999944","81206.89999999944"
"","EPstroop","9","78381","0.0-4.5-0.5","317","","","STROOPtrain","","0","0","2","955.5454931559032","1200","700","1","0","81914.09999999963","82874.39999999944","83191"
"","EPstroop","10","80477","0.0-4.6-0.6","413","","","STROOPtrain","","0","2","2","968.9333640661107","1200","700","0","1","83898.89999999944","84874","85287.29999999981"
"","EPstroop","11","82652","0.0-4.7-0.7","381","","","STROOPtrain","","0","2","2","1084.6615302816135","1200","700","1","1","85993.79999999981","87081.39999999944","87462.29999999981"
"","EPstroop","12","84717","0.0-4.8-0.8","542","","","STROOPtrain","","0","0","0","807.9598484858769","1200","700","1","1","88170.09999999963","88985.09999999963","89526.89999999944"
"","EPstroop","13","86477","0.0-4.9-0.9","293","","","STROOPtrain","","0","1","1","751.9013676799925","1200","700","1","1","90234.89999999944","90993.5","91287"
"","EPstroop","14","88493","0.0-4.10-0.10","342","","","STROOPtrain","","0","2","0","962.2198469918956","1200","700","1","0","91994.59999999963","92961.20000000019","93302.89999999944"
"","EPstroop","15","90557","0.0-4.11-0.11","630","","","STROOPtrain","","0","1","0","722.1138255226803","1200","700","0","0","94009.79999999981","94736.89999999944","95367.29999999981"
"","EPstroop","16","92493","0.0-4.12-0.12","397","","","STROOPtrain","","0","0","0","829.3634405821979","1200","700","1","1","96074.70000000019","96905.39999999944","97301.89999999944"
"","EPstroop","17","94878","0.0-4.13-0.13","798","","","STROOPtrain","","0","1","1","873.4062288124076","1200","700","1","1","98010.20000000019","98889.20000000019","99686.89999999944"
"","EPstroop","18","96973","0.0-4.14-0.14","501","","","STROOPtrain","","0","2","2","879.270234433156","1200","700","1","1","100395.20000000019","101281.29999999981","101782.29999999981"
"","EPstroop","19","98781","0.0-4.15-0.15","381","","","STROOPtrain","","0","1","2","711.7582849745046","1200","700","1","0","102489.5","103209.5","103590.70000000019"
"","EPstroop","20","100718","0.0-4.16-0.16","317","","","STROOPtrain","","0","1","1","904.0523036689133","1200","700","1","1","104297.70000000019","105209.39999999944","105526.29999999981"
"","EPstroop","21","102685","0.0-4.17-0.17","397","","","STROOPtrain","","0","2","1","858.1607282458909","1200","700","1","0","106235.29999999981","107097.5","107494"
"","external-html","22","105707","0.0-5.0-0.0","2940","-1","STROOP_html/welcome3.html","instructions","","","","","","","","","","","",""
"","call-function","23","105770","0.0-6.0","","","","","58.799999999813735","","","","","","","","","","",""
"","call-function","24","105837","0.0-7.0","","","","","66.20000000018626","","","","","","","","","","",""
"","EPstroop","25","108500","0.0-8.0-0.0","1094","","","STROOPmain","","0","2","2","847.4952090146376","1200","700","1","1","111354.89999999944","112208.79999999981","113308.5"
"","EPstroop","26","110621","0.0-8.1-0.1","614","","","STROOPmain","","1","1","1","792.629480377147","1200","700","1","1","114018.09999999963","114817","115431.20000000019"
"","EPstroop","27","112700","0.0-8.2-0.2","446","","","STROOPmain","","2","2","2","920.8838418943692","1200","700","1","1","116138.59999999963","117064.59999999963","117511.39999999944"
"","EPstroop","28","115069","0.0-8.3-0.3","646","","","STROOPmain","","3","0","0","1010.1325721317723","1200","700","1","1","118217.89999999944","119233.39999999944","119879.79999999981"
"","EPstroop","29","117533","0.0-8.4-0.4","718","","","STROOPmain","","4","0","1","1030.4347322059061","1200","700","1","0","120586.59999999963","121624.5","122343.20000000019"
"","EPstroop","30","119549","0.0-8.5-0.5","462","","","STROOPmain","","5","2","2","839.4322537314507","1200","700","1","1","123050.59999999963","123897.29999999981","124359.20000000019"
"","EPstroop","31","121469","0.0-8.6-0.6","470","","","STROOPmain","","6","2","2","737.9953656517208","1200","700","1","1","125066.59999999963","125809.29999999981","126279.39999999944"
"","EPstroop","32","123709","0.0-8.7-0.7","470","","","STROOPmain","","7","1","2","1060.054094905258","1200","700","1","0","126986.39999999944","128049.09999999963","128519.5"
"","EPstroop","33","125677","0.0-8.8-0.8","550","","","STROOPmain","","8","1","1","709.7863660175356","1200","700","1","1","129226.20000000019","129937.20000000019","130487.20000000019"
"","EPstroop","34","127821","0.0-8.9-0.9","437","","","STROOPmain","","9","1","0","994.4945984211929","1200","700","1","0","131194.7999999998","132193.7999999998","132631.2000000002"
"","EPstroop","35","130045","0.0-8.10-0.10","614","","","STROOPmain","","10","2","2","899.8977552793631","1200","700","1","1","133338","134241.2999999998","134855.2000000002"
"","EPstroop","36","132013","0.0-8.11-0.11","438","","","STROOPmain","","11","1","1","821.3756349349295","1200","700","1","1","135561.2999999998","136385","136822.59999999963"
"","EPstroop","37","134141","0.0-8.12-0.12","486","","","STROOPmain","","12","0","0","928.1544507058097","1200","700","1","1","137530.09999999963","138464.89999999944","138951.5"
"","EPstroop","38","136125","0.0-8.13-0.13","540","","","STROOPmain","","13","2","2","732.4232003496156","1200","700","1","1","139657.7999999998","140394.39999999944","140935"
"","EPstroop","39","138349","0.0-8.14-0.14","638","","","STROOPmain","","14","0","2","873.821731280135","1200","700","1","0","141641.89999999944","142521.2000000002","143159.2000000002"
"","EPstroop","40","140589","0.0-8.15-0.15","614","","","STROOPmain","","15","0","0","913.7588477117056","1200","700","1","1","143865.2999999998","144784.7999999998","145399.2000000002"
"","EPstroop","41","142733","0.0-8.16-0.16","726","","","STROOPmain","","16","1","1","706.0352750445819","1200","700","1","1","146106.5","146817","147543.2000000002"
"","EPstroop","42","145085","0.0-8.17-0.17","733","","","STROOPmain","","17","1","1","910.9706901187443","1200","700","1","1","148250.09999999963","149161.2000000002","149894.39999999944"
"","EPstroop","43","147389","0.0-8.18-0.18","822","","","STROOPmain","","18","1","1","773.5175929650632","1200","700","1","1","150602.59999999963","151377.2000000002","152199"
"","EPstroop","44","149756","0.0-8.19-0.19","566","","","STROOPmain","","19","2","0","1091.9102791849004","1200","700","1","0","152906.09999999963","154001.39999999944","154567.09999999963"
"","EPstroop","45","151950","0.0-8.20-0.20","652","","","STROOPmain","","20","1","1","830.6234423030003","1200","700","1","1","155273.7999999998","156106.59999999963","156759"
"","EPstroop","46","153901","0.0-8.21-0.21","485","","","STROOPmain","","21","1","2","752.7655855858181","1200","700","1","0","157467.39999999944","158226.09999999963","158711.09999999963"
"","EPstroop","47","156286","0.0-8.22-0.22","751","","","STROOPmain","","22","2","1","919.7151181771105","1200","700","1","0","159418.09999999963","160344.5","161095.2999999998"
"","EPstroop","48","158381","0.0-8.23-0.23","550","","","STROOPmain","","23","1","1","834.9756708785138","1200","700","1","1","161802.89999999944","162641.2000000002","163191.09999999963"
"","EPstroop","49","160557","0.0-8.24-0.24","374","","","STROOPmain","","24","2","0","1086.6825188554094","1200","700","1","0","163898.59999999963","164992.59999999963","165367.2000000002"
"","EPstroop","50","162829","0.0-8.25-0.25","494","","","STROOPmain","","25","0","1","1068.7185903799773","1200","700","1","0","166074","167145.09999999963","167639.2000000002"
"","EPstroop","51","164941","0.0-8.26-0.26","606","","","STROOPmain","","26","0","0","794.3026127019464","1200","700","1","1","168345.7000000002","169144.7999999998","169751.2000000002"
"","EPstroop","52","166973","0.0-8.27-0.27","558","","","STROOPmain","","27","0","1","760.9731168762179","1200","700","1","0","170457.89999999944","171224.89999999944","171783.2999999998"
"","EPstroop","53","169020","0.0-8.28-0.28","397","","","STROOPmain","","28","0","0","942.2762156128414","1200","700","1","1","172490","173433.7999999998","173831.2000000002"
"","EPstroop","54","171436","0.0-8.29-0.29","629","","","STROOPmain","","29","2","2","1071.8984279845824","1200","700","1","1","174537.39999999944","175617.59999999963","176247.2000000002"
"","EPstroop","55","173436","0.0-8.30-0.30","557","","","STROOPmain","","30","2","2","730.9041691552574","1200","700","1","1","176953.7999999998","177689.59999999963","178247.09999999963"
"","EPstroop","56","175757","0.0-8.31-0.31","534","","","STROOPmain","","31","2","0","1072.8763616417798","1200","700","1","0","178953.7999999998","180033.39999999944","180567.2000000002"
"","EPstroop","57","177981","0.0-8.32-0.32","670","","","STROOPmain","","32","2","2","845.7153141751608","1200","700","1","1","181274.59999999963","182121.2000000002","182791.39999999944"
"","EPstroop","58","180077","0.0-8.33-0.33","430","","","STROOPmain","","33","1","1","956.2255889364412","1200","700","1","1","183498.59999999963","184457.2999999998","184887.09999999963"
"","EPstroop","59","182540","0.0-8.34-0.34","653","","","STROOPmain","","34","0","0","1099.4870187878066","1200","700","1","1","185595.2999999998","186697.39999999944","187350"
"","EPstroop","60","185005","0.0-8.35-0.35","806","","","STROOPmain","","35","2","2","949.7675783104162","1200","700","1","1","188057.39999999944","189009.2999999998","189815.09999999963"
"","EPstroop","61","187229","0.0-8.36-0.36","518","","","STROOPmain","","36","2","2","996.0720474004976","1200","700","1","1","190522.5","191521","192039.09999999963"
"","EPstroop","62","189340","0.0-8.37-0.37","598","","","STROOPmain","","37","2","1","803.7230195044274","1200","700","1","0","192746.59999999963","193553.59999999963","194151.59999999963"
"","EPstroop","63","191725","0.0-8.38-0.38","846","","","STROOPmain","","38","2","2","823.9966720854952","1200","700","1","1","194858.2000000002","195688.89999999944","196535.09999999963"
"","EPstroop","64","194061","0.0-8.39-0.39","646","","","STROOPmain","","39","2","2","979.2938589161176","1200","700","1","1","197241.7000000002","198224.59999999963","198870.5"
"","EPstroop","65","196204","0.0-8.40-0.40","630","","","STROOPmain","","40","0","0","805.2973625305007","1200","700","1","1","199578.89999999944","200385.39999999944","201015.2000000002"
"","EPstroop","66","198560","0.0-8.41-0.41","805","","","STROOPmain","","41","2","2","832.3438952554502","1200","700","1","1","201722","202561.59999999963","203367.09999999963"
"","EPstroop","67","200732","0.0-8.42-0.42","686","","","STROOPmain","","42","1","1","776.7009330494816","1200","700","1","1","204077.2000000002","204856.89999999944","205543.2999999998"
"","EPstroop","68","202828","0.0-8.43-0.43","565","","","STROOPmain","","43","0","0","821.3568285214919","1200","700","1","1","206250","207074","207639.2000000002"
"","EPstroop","69","205261","0.0-8.44-0.44","646","","","STROOPmain","","44","1","1","1076.6492153894412","1200","700","1","1","208346.09999999963","209425","210071.2000000002"
"","EPstroop","70","207501","0.0-8.45-0.45","557","","","STROOPmain","","45","2","2","972.953752071632","1200","700","1","1","210778.7000000002","211754.2999999998","212311.2000000002"
"","EPstroop","71","209725","0.0-8.46-0.46","598","","","STROOPmain","","46","1","0","917.2481933079932","1200","700","1","0","213018.7999999998","213937","214535.09999999963"
"","EPstroop","72","212220","0.0-8.47-0.47","757","","","STROOPmain","","47","1","2","1028.5043223815383","1200","700","1","0","215242.39999999944","216273.7000000002","217030.5"
"","EPstroop","73","214525","0.0-8.48-0.48","621","","","STROOPmain","","48","0","1","972.3124488142815","1200","700","1","0","217737.89999999944","218713.7000000002","219335"
"","EPstroop","74","216829","0.0-8.49-0.49","565","","","STROOPmain","","49","0","0","1026.3224446455617","1200","700","1","1","220042.2999999998","221073.89999999944","221638.59999999963"
"","EPstroop","75","219213","0.0-8.50-0.50","758","","","STROOPmain","","50","0","2","913.173340064117","1200","700","1","0","222346.39999999944","223264.89999999944","224023.2000000002"
"","EPstroop","76","221388","0.0-8.51-0.51","694","","","STROOPmain","","51","0","0","771.1294869332395","1200","700","1","1","224730.2999999998","225504.89999999944","226199.2999999998"
"","EPstroop","77","224012","0.0-8.52-0.52","878","","","STROOPmain","","52","0","2","1034.0774268180414","1200","700","1","0","226905.89999999944","227945.2999999998","228823.5"
"","EPstroop","78","226284","0.0-8.53-0.53","550","","","STROOPmain","","53","0","2","1009.7645399082762","1200","700","1","0","229529.89999999944","230545","231095.09999999963"
"","EPstroop","79","228700","0.0-8.54-0.54","790","","","STROOPmain","","54","0","0","916.4850044035188","1200","700","1","1","231801.2999999998","232720.89999999944","233511.39999999944"
"","EPstroop","80","230861","0.0-8.55-0.55","742","","","STROOPmain","","55","0","0","704.1536953501055","1200","700","1","1","234217.89999999944","234928.7000000002","235671.09999999963"
"","EPstroop","81","233085","0.0-8.56-0.56","574","","","STROOPmain","","56","0","0","935.4632434598145","1200","700","1","1","236378.7000000002","237321.2999999998","237895.2000000002"
"","EPstroop","82","235180","0.0-8.57-0.57","596","","","STROOPmain","","57","0","0","789.4293630776468","1200","700","1","1","238602.2999999998","239394.2000000002","239990.7000000002"
"","EPstroop","83","237500","0.0-8.58-0.58","654","","","STROOPmain","","58","2","0","952.5122191914155","1200","700","1","0","240697.89999999944","241657","242311.2000000002"
"","EPstroop","84","239982","0.0-8.59-0.59","797","","","STROOPmain","","59","1","1","968.0113887655846","1200","700","1","1","243017.2999999998","243993.7000000002","244791.2000000002"
"","EPstroop","85","242254","0.0-8.60-0.60","734","","","STROOPmain","","60","0","0","825.9628464472482","1200","700","1","1","245498.59999999963","246329","247063.2999999998"
"","EPstroop","86","244573","0.0-8.61-0.61","774","","","STROOPmain","","61","1","1","834.3336431094715","1200","700","1","1","247770.5","248609.39999999944","249383.2000000002"
"","EPstroop","87","246622","0.0-8.62-0.62","557","","","STROOPmain","","62","1","1","777.4190047586192","1200","700","1","1","250090","250872.7000000002","251430.09999999963"
"","EPstroop","88","248941","0.0-8.63-0.63","756","","","STROOPmain","","63","2","2","850.2441891217047","1200","700","1","1","252137.89999999944","252994.2000000002","253750.39999999944"
"","EPstroop","89","251149","0.0-8.64-0.64","662","","","STROOPmain","","64","1","1","839.7271649508887","1200","700","1","1","254457.2000000002","255297.5","255959.39999999944"
"","EPstroop","90","253278","0.0-8.65-0.65","533","","","STROOPmain","","65","1","0","886.0415127753703","1200","700","1","0","256666.2000000002","257554.09999999963","258087.2000000002"
"","EPstroop","91","255998","0.0-8.66-0.66","974","","","STROOPmain","","66","2","1","1033.4631910717699","1200","700","1","0","258795","259833.09999999963","260807.2000000002"
"","EPstroop","92","258206","0.0-8.67-0.67","645","","","STROOPmain","","67","1","0","848.7661833511811","1200","700","1","0","261514.7999999998","262369.2000000002","263014.5"
"","EPstroop","93","260621","0.0-8.68-0.68","630","","","STROOPmain","","68","1","1","1075.4640806605032","1200","700","1","1","263722.5999999996","264800.7999999998","265431.2000000002"
"","EPstroop","94","262749","0.0-8.69-0.69","510","","","STROOPmain","","69","1","2","910.1513462189952","1200","700","1","0","266137.39999999944","267049.2999999998","267559.2000000002"
"","EPstroop","95","265693","0.0-8.70-0.70","1197","","","STROOPmain","","70","2","1","1032.5804537009244","1200","700","1","0","268266.39999999944","269304.7999999998","270502.39999999944"
"","EPstroop","96","268062","0.0-8.71-0.71","582","","","STROOPmain","","71","0","0","1072.1484535447787","1200","700","1","1","271210.39999999944","272288.5","272871.0999999996"
"true","fullscreen","97","269069","0.0-9.0","","","","","","","","","","","","","","","",""
"","external-html","98","277763","0.0-10.0","8453","","./STROOP_html/endscreen.html","endscreen","","","","","","","","","","","",""
