"success","trial_type","trial_index","time_elapsed","internal_node_id","rt","keypressed","url","trial_tag","value","tnum","string","color","fixdur","respdelay","feedbackdur","correct","congruent","startTime","displayTime","feedbackTime"
"true","fullscreen","0","2530","0.0-0.0","","","","","","","","","","","","","","","",""
"","external-html","1","38637","0.0-1.0-0.0","36042","-1","STROOP_html/welcome1.html","instructions","","","","","","","","","","","",""
"","external-html","2","43724","0.0-2.0-0.0","5007","-1","STROOP_html/welcome2.html","instructions","","","","","","","","","","","",""
"","call-function","3","43798","0.0-3.0","","","","","72.19999998807907","","","","","","","","","","",""
"","EPstroop","4","46413","0.0-4.0-0.0","-1","","","STROOPtrain","","0","0","0","710.9788220769127","1200","700","-1","1","44417.19999998808","45128.69999998808","46330.59999999404"
"","EPstroop","5","48874","0.0-4.1-0.1","935","","","STROOPtrain","","0","1","1","822.3172643152516","1200","700","1","1","47033.39999997616","47856.19999998808","48790.79999998212"
"","EPstroop","6","51098","0.0-4.2-0.2","479","","","STROOPtrain","","0","1","1","1043.8171187913536","1200","700","1","1","49493.5","50536.89999997616","51015.59999999404"
"","EPstroop","7","53242","0.0-4.3-0.3","447","","","STROOPtrain","","0","1","1","993.4643822867415","1200","700","1","1","51718.09999999404","52711.79999998212","53159.19999998808"
"","EPstroop","8","55066","0.0-4.4-0.4","313","","","STROOPtrain","","0","0","1","808.834368453668","1200","700","1","0","53860.69999998808","54670","54983.39999997616"
"","EPstroop","9","57609","0.0-4.5-0.5","871","","","STROOPtrain","","0","2","0","969.9517880935718","1200","700","1","0","55686","56655.69999998808","57527.09999999404"
"","EPstroop","10","60009","0.0-4.6-0.6","836","","","STROOPtrain","","0","2","2","861.7594031423077","1200","700","1","1","58228.69999998808","59090.59999999404","59926.39999997616"
"","EPstroop","11","62073","0.0-4.7-0.7","589","","","STROOPtrain","","0","0","0","773.3347366891501","1200","700","1","1","60627.69999998808","61401.59999999404","61991"
"","EPstroop","12","64409","0.0-4.8-0.8","721","","","STROOPtrain","","0","1","2","913.7119177140787","1200","700","1","0","62692.89999997616","63606.5","64327.09999999404"
"","EPstroop","13","66698","0.0-4.9-0.9","820","","","STROOPtrain","","0","1","1","762.8987100736775","1200","700","1","1","65028.5","65794.69999998808","66614.5"
"","EPstroop","14","68953","0.0-4.10-0.10","471","","","STROOPtrain","","0","1","0","1082.9963366687095","1200","700","1","0","67317.29999998212","68399.59999999404","68871"
"","EPstroop","15","71034","0.0-4.11-0.11","660","","","STROOPtrain","","0","2","2","719.1626938269067","1200","700","1","1","69571.69999998808","70291.39999997616","70951.19999998808"
"","EPstroop","16","72954","0.0-4.12-0.12","493","","","STROOPtrain","","0","0","2","725.8959252032311","1200","700","1","0","71652.59999999404","72378.19999998808","72871.59999999404"
"","EPstroop","17","75018","0.0-4.13-0.13","532","","","STROOPtrain","","0","0","0","829.0118363220884","1200","700","0","1","73573.79999998212","74403.5","74935.19999998808"
"","EPstroop","18","77337","0.0-4.14-0.14","692","","","STROOPtrain","","0","0","0","925.8955870879616","1200","700","1","1","75637.5","76563.09999999404","77255"
"","EPstroop","19","79497","0.0-4.15-0.15","656","","","STROOPtrain","","0","2","2","801.0944133048528","1200","700","1","1","77956.89999997616","78758.5","79415.09999999404"
"","EPstroop","20","81514","0.0-4.16-0.16","578","","","STROOPtrain","","0","2","1","736.266220934542","1200","700","1","0","80117","80853.5","81431.19999998808"
"","EPstroop","21","83754","0.0-4.17-0.17","474","","","STROOPtrain","","0","2","2","1064.2977115932529","1200","700","1","1","82133.19999998808","83197.69999998808","83671.5"
"","external-html","22","87756","0.0-5.0-0.0","3907","-1","STROOP_html/welcome3.html","instructions","","","","","","","","","","","",""
"","call-function","23","87819","0.0-6.0","","","","","59.69999998807907","","","","","","","","","","",""
"","call-function","24","87875","0.0-7.0","","","","","56.29999998211861","","","","","","","","","","",""
"","EPstroop","25","90387","0.0-8.0-0.0","1073","","","STROOPmain","","0","0","0","725.5980935783102","1200","700","1","1","88496.09999999404","89222.19999998808","90304.39999997616"
"","EPstroop","26","92921","0.0-8.1-0.1","739","","","STROOPmain","","1","1","1","1085.5915098453581","1200","700","1","1","91007","92099.89999997616","92838.5"
"","EPstroop","27","94810","0.0-8.2-0.2","456","","","STROOPmain","","2","1","1","731.328389544823","1200","700","1","1","93540.59999999404","94271.89999997616","94727.79999998212"
"","EPstroop","28","96825","0.0-8.3-0.3","543","","","STROOPmain","","3","0","0","770.2689078077498","1200","700","1","1","95429.59999999404","96200.29999998212","96743.39999997616"
"","EPstroop","29","99068","0.0-8.4-0.4","584","","","STROOPmain","","4","1","1","954.5756627061485","1200","700","1","1","97445","98399.5","98983.39999997616"
"","EPstroop","30","101243","0.0-8.5-0.5","453","","","STROOPmain","","5","1","1","1018.3744083793698","1200","700","1","1","99686.39999997616","100706.29999998212","101159.39999997616"
"","EPstroop","31","103339","0.0-8.6-0.6","391","","","STROOPmain","","6","1","1","1002.2666291076868","1200","700","1","1","101861.39999997616","102864","103255.29999998212"
"","EPstroop","32","105243","0.0-8.7-0.7","361","","","STROOPmain","","7","1","1","837.7310906689277","1200","700","1","1","103957.09999999404","104797.89999997616","105159.79999998212"
"","EPstroop","33","107403","0.0-8.8-0.8","446","","","STROOPmain","","8","0","0","1010.9048067915237","1200","700","1","1","105861.69999998808","106873.09999999404","107319.29999998212"
"","EPstroop","34","109370","0.0-8.9-0.9","544","","","STROOPmain","","9","1","1","720.594242949387","1200","700","1","1","108021.89999997616","108742.89999997616","109286.59999999404"
"","EPstroop","35","111482","0.0-8.10-0.10","466","","","STROOPmain","","10","2","2","943.4266716474178","1200","700","1","1","109988.79999998212","110933.09999999404","111399.29999998212"
"","EPstroop","36","113770","0.0-8.11-0.11","586","","","STROOPmain","","11","0","0","999.2630081965344","1200","700","1","1","112100.69999998808","113100.69999998808","113687.29999998212"
"","EPstroop","37","115788","0.0-8.12-0.12","585","","","STROOPmain","","12","0","0","728.9964777902144","1200","700","1","1","114388.89999997616","115118","115703.69999998808"
"","EPstroop","38","117978","0.0-8.13-0.13","542","","","STROOPmain","","13","2","2","946.9898319068728","1200","700","1","1","116406.59999999404","117353.29999998212","117895.5"
"","EPstroop","39","120604","0.0-8.14-0.14","874","","","STROOPmain","","14","2","2","1048.6331618829831","1200","700","1","1","118596.29999998212","119645.5","120519.29999998212"
"","EPstroop","40","122763","0.0-8.15-0.15","585","","","STROOPmain","","15","1","1","871.3224970906714","1200","700","1","1","121222","122094.09999999404","122679.39999997616"
"","EPstroop","41","125210","0.0-8.16-0.16","933","","","STROOPmain","","16","2","1","812.6724233101934","1200","700","1","0","123381.09999999404","124193.79999998212","125126.59999999404"
"","EPstroop","42","127179","0.0-8.17-0.17","542","","","STROOPmain","","17","2","2","724.4544584535367","1200","700","1","1","125828.69999998808","126553.39999997616","127095.5"
"","EPstroop","43","129595","0.0-8.18-0.18","671","","","STROOPmain","","18","1","1","1042.9936700024632","1200","700","1","1","127797.19999998808","128840.39999997616","129511.39999997616"
"","EPstroop","44","132043","0.0-8.19-0.19","860","","","STROOPmain","","19","2","1","886.9749179319463","1200","700","1","0","130213","131099.29999998212","131959.19999998808"
"","EPstroop","45","134171","0.0-8.20-0.20","573","","","STROOPmain","","20","2","2","852.6672183209238","1200","700","1","1","132661.39999997616","133513.89999997616","134087"
"","EPstroop","46","136427","0.0-8.21-0.21","574","","","STROOPmain","","21","1","1","978.5316296617198","1200","700","1","1","134789.19999998808","135769","136343.29999998212"
"","EPstroop","47","138795","0.0-8.22-0.22","605","","","STROOPmain","","22","2","2","1060.577164068672","1200","700","1","1","137045.39999997616","138106.09999999404","138711.69999998808"
"","EPstroop","48","141419","0.0-8.23-0.23","830","","","STROOPmain","","23","2","0","1090.4153669921584","1200","700","1","0","139413.39999997616","140505.5","141335.29999998212"
"","EPstroop","49","143750","0.0-8.24-0.24","694","","","STROOPmain","","24","1","1","922.6459774007242","1200","700","1","1","142037.69999998808","142960.79999998212","143654.39999997616"
"","EPstroop","50","145723","0.0-8.25-0.25","493","","","STROOPmain","","25","2","2","777.3639332739634","1200","700","1","1","144368","145146.29999998212","145639.19999998808"
"","EPstroop","51","148378","0.0-8.26-0.26","997","","","STROOPmain","","26","1","2","955.6698375131941","1200","700","1","0","146340.89999997616","147297.69999998808","148294.79999998212"
"","EPstroop","52","150524","0.0-8.27-0.27","549","","","STROOPmain","","27","2","2","892.3201041691195","1200","700","1","1","148996.89999997616","149890.5","150439.69999998808"
"","EPstroop","53","152859","0.0-8.28-0.28","773","","","STROOPmain","","28","1","0","848.8496079972795","1200","700","1","0","151142.5","152001.59999999404","152775.39999997616"
"","EPstroop","54","155338","0.0-8.29-0.29","947","","","STROOPmain","","29","2","2","830.8000787862683","1200","700","1","1","153477","154308","155255.5"
"","EPstroop","55","157557","0.0-8.30-0.30","472","","","STROOPmain","","30","2","2","1034.8992754939395","1200","700","1","1","155956.39999997616","156991.59999999404","157463.29999998212"
"","EPstroop","56","159851","0.0-8.31-0.31","554","","","STROOPmain","","31","1","1","1036.6439019448626","1200","700","1","1","158175.89999997616","159213.5","159767.39999997616"
"","EPstroop","57","162171","0.0-8.32-0.32","815","","","STROOPmain","","32","0","1","803.8482314558883","1200","700","1","0","160468.29999998212","161272","162087.5"
"","EPstroop","58","164395","0.0-8.33-0.33","779","","","STROOPmain","","33","0","0","742.7726533921249","1200","700","1","1","162789.29999998212","163532.5","164311.39999997616"
"","EPstroop","59","166795","0.0-8.34-0.34","843","","","STROOPmain","","34","0","1","854.6677700864435","1200","700","1","0","165013.19999998808","165868.5","166711.29999998212"
"","EPstroop","60","169483","0.0-8.35-0.35","984","","","STROOPmain","","35","0","0","1001.5261041649376","1200","700","1","1","167412.59999999404","168414.69999998808","169398.39999997616"
"","EPstroop","61","171675","0.0-8.36-0.36","708","","","STROOPmain","","36","1","1","782.0600313150268","1200","700","1","1","170100.69999998808","170883.5","171591.29999998212"
"","EPstroop","62","174010","0.0-8.37-0.37","565","","","STROOPmain","","37","1","2","1067.1893178474656","1200","700","1","0","172293.19999998808","173361.19999998808","173926.5"
"","EPstroop","63","176476","0.0-8.38-0.38","808","","","STROOPmain","","38","2","1","955.4978601636778","1200","700","1","0","174627.69999998808","175583.39999997616","176391.29999998212"
"","EPstroop","64","178874","0.0-8.39-0.39","609","","","STROOPmain","","39","0","0","1087.9319997056307","1200","700","1","1","177093.29999998212","178181.29999998212","178791"
"","EPstroop","65","180971","0.0-8.40-0.40","617","","","STROOPmain","","40","2","2","777.4985511521281","1200","700","1","1","179491.69999998808","180269.89999997616","180887.29999998212"
"","EPstroop","66","183147","0.0-8.41-0.41","441","","","STROOPmain","","41","0","2","1033.2372718682773","1200","700","1","0","181588.79999998212","182622.5","183063.29999998212"
"","EPstroop","67","185260","0.0-8.42-0.42","678","","","STROOPmain","","42","1","1","731.0348017141546","1200","700","1","1","183764.79999998212","184497.39999997616","185175.69999998808"
"","EPstroop","68","187469","0.0-8.43-0.43","555","","","STROOPmain","","43","2","2","950.5224896222794","1200","700","1","1","185877.5","186828.19999998808","187383.39999997616"
"","EPstroop","69","189691","0.0-8.44-0.44","778","","","STROOPmain","","44","0","2","742.995674917687","1200","700","1","0","188086.29999998212","188828.89999997616","189607.29999998212"
"","EPstroop","70","191900","0.0-8.45-0.45","595","","","STROOPmain","","45","0","0","911.4514463621903","1200","700","1","1","190308.59999999404","191220.09999999404","191815.19999998808"
"","EPstroop","71","194043","0.0-8.46-0.46","452","","","STROOPmain","","46","2","0","988.0432196958826","1200","700","1","0","192517.5","193505.89999997616","193958.39999997616"
"","EPstroop","72","196043","0.0-8.47-0.47","414","","","STROOPmain","","47","0","0","883.1185479175901","1200","700","1","1","194660.69999998808","195544.09999999404","195958.59999999404"
"","EPstroop","73","197994","0.0-8.48-0.48","504","","","STROOPmain","","48","2","2","744.1438587700924","1200","700","1","1","196660.5","197405.89999997616","197910.39999997616"
"","EPstroop","74","200203","0.0-8.49-0.49","523","","","STROOPmain","","49","1","0","982.3833401862207","1200","700","1","0","198612","199595.69999998808","200119.39999997616"
"","EPstroop","75","202203","0.0-8.50-0.50","373","","","STROOPmain","","50","1","1","923.873288881515","1200","700","1","1","200820.89999997616","201745.69999998808","202119.09999999404"
"","EPstroop","76","204250","0.0-8.51-0.51","503","","","STROOPmain","","51","1","1","842.8959072645879","1200","700","1","1","202820.89999997616","203663.79999998212","204166.39999997616"
"","EPstroop","77","206492","0.0-8.52-0.52","525","","","STROOPmain","","52","0","1","1013.7992912728712","1200","700","1","0","204868.19999998808","205882.19999998808","206407.59999999404"
"","EPstroop","78","208460","0.0-8.53-0.53","409","","","STROOPmain","","53","0","0","855.8936090013133","1200","700","1","1","207109.5","207965.89999997616","208375.19999998808"
"","EPstroop","79","210636","0.0-8.54-0.54","679","","","STROOPmain","","54","0","2","794.6644111572805","1200","700","1","0","209077.39999997616","209871.59999999404","210551.29999998212"
"","EPstroop","80","212907","0.0-8.55-0.55","798","","","STROOPmain","","55","0","0","770.7784865256983","1200","700","1","1","211252.79999998212","212023.79999998212","212822.29999998212"
"","EPstroop","81","215516","0.0-8.56-0.56","842","","","STROOPmain","","56","2","1","1063.7238489587698","1200","700","1","0","213524.5","214588.5","215431.39999997616"
"","EPstroop","82","217770","0.0-8.57-0.57","686","","","STROOPmain","","57","0","0","866.015180895433","1200","700","1","1","216133.5","217000.5","217686.5"
"","EPstroop","83","219980","0.0-8.58-0.58","783","","","STROOPmain","","58","2","0","724.1285110868171","1200","700","1","0","218387.79999998212","219112.39999997616","219895.39999997616"
"","EPstroop","84","222171","0.0-8.59-0.59","667","","","STROOPmain","","59","0","2","821.6963366927833","1200","700","1","0","220597.09999999404","221418.89999997616","222086.59999999404"
"","EPstroop","85","224491","0.0-8.60-0.60","611","","","STROOPmain","","60","0","1","1006.0071232347384","1200","700","1","0","222788","223795.79999998212","224406.5"
"","EPstroop","86","227132","0.0-8.61-0.61","846","","","STROOPmain","","61","1","0","1092.9342965133928","1200","700","1","0","225107.69999998808","226200.89999997616","227047.29999998212"
"","EPstroop","87","229356","0.0-8.62-0.62","652","","","STROOPmain","","62","2","2","863.295426988137","1200","700","1","1","227748.69999998808","228619.69999998808","229271.59999999404"
"","EPstroop","88","231388","0.0-8.63-0.63","558","","","STROOPmain","","63","2","2","771.9639655135859","1200","700","1","1","229973.09999999404","230744.39999997616","231303.09999999404"
"","EPstroop","89","233532","0.0-8.64-0.64","726","","","STROOPmain","","64","0","0","715.1513724111397","1200","700","1","1","232004.5","232720.39999997616","233446.59999999404"
"","EPstroop","90","235387","0.0-8.65-0.65","433","","","STROOPmain","","65","0","0","720.3060707558177","1200","700","1","1","234148.5","234869.39999997616","235302.29999998212"
"","EPstroop","91","237389","0.0-8.66-0.66","366","","","STROOPmain","","66","2","0","932.4448379799528","1200","700","1","0","236004","236937.09999999404","237303.19999998808"
"","EPstroop","92","239292","0.0-8.67-0.67","351","","","STROOPmain","","67","0","0","848.9278687958482","1200","700","1","1","238006.5","238854.89999997616","239206.39999997616"
"","EPstroop","93","241708","0.0-8.68-0.68","738","","","STROOPmain","","68","1","2","976.0671845150953","1200","700","1","0","239908.29999998212","240884.69999998808","241623.39999997616"
"","EPstroop","94","244300","0.0-8.69-0.69","824","","","STROOPmain","","69","1","0","1064.357234315465","1200","700","1","0","242324.69999998808","243390.79999998212","244215.29999998212"
"","EPstroop","95","247181","0.0-8.70-0.70","-1","","","STROOPmain","","70","2","2","976.9863085558025","1200","700","-1","1","244917.19999998808","245893.79999998212","247095.29999998212"
"","EPstroop","96","249436","0.0-8.71-0.71","597","","","STROOPmain","","71","1","2","955.3372850870694","1200","700","1","0","247797.69999998808","248754.19999998808","249351.29999998212"
"true","fullscreen","97","250440","0.0-9.0","","","","","","","","","","","","","","","",""
"","external-html","98","285343","0.0-10.0","5749","","./STROOP_html/endscreen.html","endscreen","","","","","","","","","","","",""
