"success","trial_type","trial_index","time_elapsed","internal_node_id","rt","keypressed","url","trial_tag","value","tnum","string","color","fixdur","respdelay","feedbackdur","correct","congruent","startTime","displayTime","feedbackTime"
"true","fullscreen","0","2063","0.0-0.0","","","","","","","","","","","","","","","",""
"","external-html","1","36837","0.0-1.0-0.0","34687","-1","STROOP_html/welcome1.html","instructions","","","","","","","","","","","",""
"","external-html","2","50200","0.0-2.0-0.0","13277","-1","STROOP_html/welcome2.html","instructions","","","","","","","","","","","",""
"","call-function","3","50294","0.0-3.0","","","","","89.3999999994412","","","","","","","","","","",""
"","EPstroop","4","52976","0.0-4.0-0.0","-1","","","STROOPtrain","","0","1","1","773.1676711363873","1200","700","-1","1","50734.89999999944","51508.5","52709.89999999944"
"","EPstroop","5","55267","0.0-4.1-0.1","818","","","STROOPtrain","","0","2","2","771.2665523508485","1200","700","1","1","53417.299999999814","54189.299999999814","55007.200000000186"
"","EPstroop","6","57586","0.0-4.2-0.2","740","","","STROOPtrain","","0","1","1","877.6445602989386","1200","700","1","1","55708.59999999963","56585.799999999814","57326"
"","EPstroop","7","59795","0.0-4.3-0.3","537","","","STROOPtrain","","0","1","1","968.8664883828005","1200","700","1","1","58027.299999999814","58996.700000000186","59534"
"","EPstroop","8","62564","0.0-4.4-0.4","998","","","STROOPtrain","","0","1","2","1068.2715993517763","1200","700","0","0","60236.09999999963","61304.799999999814","62303"
"","EPstroop","9","64898","0.0-4.5-0.5","611","","","STROOPtrain","","0","2","2","1020.4121371170784","1200","700","1","1","63005.5","64026.39999999944","64638"
"","EPstroop","10","67315","0.0-4.6-0.6","928","","","STROOPtrain","","0","0","0","786.2015756855562","1200","700","1","1","65339.299999999814","66126.59999999963","67054.89999999944"
"","EPstroop","11","69506","0.0-4.7-0.7","465","","","STROOPtrain","","0","1","1","1023.9298443162633","1200","700","1","1","67756.79999999981","68781.09999999963","69246.09999999963"
"","EPstroop","12","71907","0.0-4.8-0.8","705","","","STROOPtrain","","0","0","0","994.3148739920582","1200","700","1","1","69947.39999999944","70941.89999999944","71646.70000000019"
"","EPstroop","13","74179","0.0-4.9-0.9","791","","","STROOPtrain","","0","0","2","774.6796303949791","1200","700","1","0","72349","73128.09999999963","73919.09999999963"
"","EPstroop","14","76387","0.0-4.10-0.10","423","","","STROOPtrain","","0","2","2","1068.8204049342376","1200","700","1","1","74620.20000000019","75703.59999999963","76127"
"","EPstroop","15","78914","0.0-4.11-0.11","1005","","","STROOPtrain","","0","0","1","819.640710822945","1200","700","1","0","76828.70000000019","77648.59999999963","78653.89999999944"
"","EPstroop","16","81813","0.0-4.12-0.12","-1","","","STROOPtrain","","0","1","0","994.9306064018672","1200","700","-1","0","79356","80351.20000000019","81552.09999999963"
"","EPstroop","17","84098","0.0-4.13-0.13","817","","","STROOPtrain","","0","2","0","766.0248208918135","1200","700","0","0","82254.70000000019","83021.59999999963","83838.29999999981"
"","EPstroop","18","86627","0.0-4.14-0.14","857","","","STROOPtrain","","0","0","0","970.4438320514802","1200","700","1","1","84539.5","85510","86367"
"","EPstroop","19","89443","0.0-4.15-0.15","1114","","","STROOPtrain","","0","2","1","998.1231319894282","1200","700","1","0","87068.20000000019","88068.29999999981","89182.79999999981"
"","EPstroop","20","91694","0.0-4.16-0.16","541","","","STROOPtrain","","0","0","0","995.7661953897701","1200","700","0","1","89884.59999999963","90880.79999999981","91422.29999999981"
"","EPstroop","21","94362","0.0-4.17-0.17","-1","","","STROOPtrain","","0","2","2","763.974340905874","1200","700","-1","1","92135.89999999944","92900","94101"
"","external-html","22","98837","0.0-5.0-0.0","4367","-1","STROOP_html/welcome3.html","instructions","","","","","","","","","","","",""
"","call-function","23","98897","0.0-6.0","","","","","57.799999999813735","","","","","","","","","","",""
"","call-function","24","98958","0.0-7.0","","","","","60.299999999813735","","","","","","","","","","",""
"","EPstroop","25","101324","0.0-8.0-0.0","906","","","STROOPmain","","0","0","0","747.2539207938235","1200","700","1","1","99399.89999999944","100148.5","101063.29999999981"
"","EPstroop","26","104113","0.0-8.1-0.1","-1","","","STROOPmain","","1","2","2","871.6089895198211","1200","700","-1","1","101765.29999999981","102641.20000000019","103853"
"","EPstroop","27","106812","0.0-8.2-0.2","-1","","","STROOPmain","","2","2","2","794.0778404240996","1200","700","-1","1","104555.39999999944","105350.59999999963","106551.39999999944"
"","EPstroop","28","109713","0.0-8.3-0.3","-1","","","STROOPmain","","3","2","0","999.0687814589166","1200","700","-1","0","107253.29999999981","108253.20000000019","109453.59999999963"
"","EPstroop","29","112450","0.0-8.4-0.4","-1","","","STROOPmain","","4","1","1","833.689491239208","1200","700","-1","1","110154.70000000019","110988.89999999944","112189.79999999981"
"","EPstroop","30","114820","0.0-8.5-0.5","728","","","STROOPmain","","5","2","2","938.115951893536","1200","700","1","1","112891.29999999981","113830.39999999944","114558.59999999963"
"","EPstroop","31","117189","0.0-8.6-0.6","756","","","STROOPmain","","6","2","1","909.2693463008432","1200","700","0","0","115260.29999999981","116170.39999999944","116926.59999999963"
"","EPstroop","32","119539","0.0-8.7-0.7","931","","","STROOPmain","","7","0","1","718.3572810536041","1200","700","1","0","117628.89999999944","118347.39999999944","119278.70000000019"
"","EPstroop","33","122035","0.0-8.8-0.8","756","","","STROOPmain","","8","0","0","1038.45292754522","1200","700","1","1","119979.39999999944","121017.59999999963","121774.09999999963"
"","EPstroop","34","124147","0.0-8.9-0.9","588","","","STROOPmain","","9","1","1","821.01705638965","1200","700","1","1","122476.70000000019","123298.20000000019","123886.20000000019"
"","EPstroop","35","126644","0.0-8.10-0.10","718","","","STROOPmain","","10","0","2","1076.521415465873","1200","700","1","0","124587.20000000019","125664.20000000019","126383"
"","EPstroop","36","128916","0.0-8.11-0.11","736","","","STROOPmain","","11","1","1","833.4125952621572","1200","700","1","1","127084.29999999981","127918.20000000019","128654.89999999944"
"","EPstroop","37","130964","0.0-8.12-0.12","430","","","STROOPmain","","12","0","0","914.4186103026175","1200","700","1","1","129357","130272.59999999963","130703"
"","EPstroop","38","133427","0.0-8.13-0.13","702","","","STROOPmain","","13","1","1","1058.3127604867113","1200","700","1","1","131404.89999999944","132463.59999999963","133165.7000000002"
"","EPstroop","39","136275","0.0-8.14-0.14","1112","","","STROOPmain","","14","0","1","1035.7216229132782","1200","700","1","0","133866.7999999998","134902.2999999998","136014.2999999998"
"","EPstroop","40","138467","0.0-8.15-0.15","588","","","STROOPmain","","15","1","1","900.5908824368861","1200","700","1","1","136716.39999999944","137617.7000000002","138206"
"","EPstroop","41","141012","0.0-8.16-0.16","781","","","STROOPmain","","16","2","0","1062.4038549696538","1200","700","1","0","138907.59999999963","139970.09999999963","140750.7999999998"
"","EPstroop","42","143332","0.0-8.17-0.17","818","","","STROOPmain","","17","1","2","798.0866121755788","1200","700","1","0","141453","142252.2999999998","143070.89999999944"
"","EPstroop","43","145524","0.0-8.18-0.18","616","","","STROOPmain","","18","2","2","865.5695767609192","1200","700","1","1","143772.7000000002","144647","145262.89999999944"
"","EPstroop","44","147619","0.0-8.19-0.19","609","","","STROOPmain","","19","2","2","784.9176622208748","1200","700","1","1","145964.39999999944","146749.2999999998","147358.5"
"","EPstroop","45","149972","0.0-8.20-0.20","776","","","STROOPmain","","20","0","0","873.1963104289616","1200","700","1","1","148060.2999999998","148934.7999999998","149710.89999999944"
"","EPstroop","46","152276","0.0-8.21-0.21","815","","","STROOPmain","","21","1","2","786.4670484956083","1200","700","0","0","150412.09999999963","151199.39999999944","152014.89999999944"
"","EPstroop","47","154884","0.0-8.22-0.22","1184","","","STROOPmain","","22","0","1","721.0215249991946","1200","700","1","0","152716.89999999944","153438.89999999944","154622.89999999944"
"","EPstroop","48","157219","0.0-8.23-0.23","629","","","STROOPmain","","23","1","1","1004.0629373363986","1200","700","1","1","155324.7999999998","156329.89999999944","156958.89999999944"
"","EPstroop","49","159571","0.0-8.24-0.24","920","","","STROOPmain","","24","0","0","729.6117240784586","1200","700","1","1","157659.5","158389.59999999963","159310"
"","EPstroop","50","161587","0.0-8.25-0.25","530","","","STROOPmain","","25","0","0","784.2184017499724","1200","700","1","1","160011.09999999963","160796.09999999963","161326.2999999998"
"","EPstroop","51","163844","0.0-8.26-0.26","759","","","STROOPmain","","26","2","1","795.0688413910193","1200","700","1","0","162027.39999999944","162823.7999999998","163582.7999999998"
"","EPstroop","52","166067","0.0-8.27-0.27","685","","","STROOPmain","","27","1","2","835.5368315243078","1200","700","1","0","164284.7999999998","165121.59999999963","165806.7999999998"
"","EPstroop","53","168820","0.0-8.28-0.28","1002","","","STROOPmain","","28","1","1","1048.3429768289875","1200","700","1","1","166508.39999999944","167556.89999999944","168558.89999999944"
"","EPstroop","54","171379","0.0-8.29-0.29","1139","","","STROOPmain","","29","2","0","718.8223131504992","1200","700","1","0","169260.7999999998","169979.5","171118.09999999963"
"","EPstroop","55","174056","0.0-8.30-0.30","-1","","","STROOPmain","","30","1","0","773.1778137722383","1200","700","-1","0","171819.5","172593.7000000002","173794.59999999963"
"","EPstroop","56","176245","0.0-8.31-0.31","678","","","STROOPmain","","31","1","0","806.3321305117352","1200","700","1","0","174496.7000000002","175304.09999999963","175982.7000000002"
"","EPstroop","57","179149","0.0-8.32-0.32","-1","","","STROOPmain","","32","0","2","1001.7746292017907","1200","700","-1","0","176685","177687","178888.09999999963"
"","EPstroop","58","181347","0.0-8.33-0.33","568","","","STROOPmain","","33","0","2","927.808288650644","1200","700","1","0","179589.7000000002","180517.5","181085.59999999963"
"","EPstroop","59","183733","0.0-8.34-0.34","724","","","STROOPmain","","34","1","1","959.3896372102357","1200","700","1","1","181787.5","182747.09999999963","183471.09999999963"
"","EPstroop","60","186244","0.0-8.35-0.35","778","","","STROOPmain","","35","0","0","1030.927080665031","1200","700","1","1","184172.7999999998","185203.59999999963","185982"
"","EPstroop","61","188260","0.0-8.36-0.36","510","","","STROOPmain","","36","0","0","803.164349460879","1200","700","1","1","186684.5","187488.2999999998","187998"
"","EPstroop","62","190724","0.0-8.37-0.37","855","","","STROOPmain","","37","1","0","906.0499224943369","1200","700","0","0","188699.89999999944","189607.2999999998","190462.59999999963"
"","EPstroop","63","192820","0.0-8.38-0.38","675","","","STROOPmain","","38","2","2","719.8426152420583","1200","700","1","1","191163.89999999944","191883.39999999944","192557.89999999944"
"","EPstroop","64","195830","0.0-8.39-0.39","-1","","","STROOPmain","","39","1","1","1092.4950339584907","1200","700","-1","1","193260.09999999963","194353.5","195568.2000000002"
"","EPstroop","65","198790","0.0-8.40-0.40","-1","","","STROOPmain","","40","2","2","1057.8186546453044","1200","700","-1","1","196270.09999999963","197328.2000000002","198529.2000000002"
"","EPstroop","66","201141","0.0-8.41-0.41","837","","","STROOPmain","","41","0","0","810.2200196540177","1200","700","0","1","199230.2000000002","200041.2000000002","200878.59999999963"
"","EPstroop","67","203843","0.0-8.42-0.42","960","","","STROOPmain","","42","2","2","1040.9361589189634","1200","700","1","1","201580.2999999998","202621.2000000002","203581.59999999963"
"","EPstroop","68","206328","0.0-8.43-0.43","957","","","STROOPmain","","43","2","0","821.4421661583956","1200","700","0","0","204283.2000000002","205105","206061.7999999998"
"","EPstroop","69","208628","0.0-8.44-0.44","731","","","STROOPmain","","44","2","2","867.3854821680251","1200","700","1","1","206767.89999999944","207635.7000000002","208366.7000000002"
"","EPstroop","70","211236","0.0-8.45-0.45","1003","","","STROOPmain","","45","1","1","901.1169266301927","1200","700","0","1","209068.2000000002","209970.7000000002","210973.7999999998"
"","EPstroop","71","214085","0.0-8.46-0.46","1087","","","STROOPmain","","46","0","1","1058.567431369253","1200","700","1","0","211675.39999999944","212734.09999999963","213821.5"
"","EPstroop","72","217045","0.0-8.47-0.47","1184","","","STROOPmain","","47","0","0","1073.3088275705727","1200","700","1","1","214524.89999999944","215598.59999999963","216782.89999999944"
"","EPstroop","73","219028","0.0-8.48-0.48","484","","","STROOPmain","","48","0","0","792.861899919173","1200","700","1","1","217485.39999999944","218282.2999999998","218766.7000000002"
"","EPstroop","74","221652","0.0-8.49-0.49","1003","","","STROOPmain","","49","2","2","918.9340758332692","1200","700","1","1","219468.2000000002","220387.39999999944","221390.59999999963"
"","EPstroop","75","223877","0.0-8.50-0.50","658","","","STROOPmain","","50","0","0","864.5595010612878","1200","700","1","1","222092.2000000002","222956.7000000002","223614.7000000002"
"","EPstroop","76","226084","0.0-8.51-0.51","683","","","STROOPmain","","51","1","1","822.0611891372496","1200","700","1","1","224316.89999999944","225139.7000000002","225822.7999999998"
"","EPstroop","77","228419","0.0-8.52-0.52","822","","","STROOPmain","","52","0","0","810.2824870230097","1200","700","1","1","226524.7000000002","227335.89999999944","228157.89999999944"
"","EPstroop","78","231019","0.0-8.53-0.53","971","","","STROOPmain","","53","1","1","919.294191305388","1200","700","1","1","228859.5","229779.5","230750.59999999963"
"","EPstroop","79","233174","0.0-8.54-0.54","637","","","STROOPmain","","54","1","1","815.3272395974157","1200","700","1","1","231457","232273.09999999963","232910.7000000002"
"","EPstroop","80","235606","0.0-8.55-0.55","773","","","STROOPmain","","55","0","0","955.8149528098627","1200","700","1","1","233612.5","234568.89999999944","235342.59999999963"
"","EPstroop","81","237926","0.0-8.56-0.56","550","","","STROOPmain","","56","0","0","1066.9634343450093","1200","700","1","1","236044.59999999963","237111.89999999944","237662.5"
"","EPstroop","82","240680","0.0-8.57-0.57","-1","","","STROOPmain","","57","2","2","850.2508717201979","1200","700","-1","1","238364","239215.2000000002","240416.39999999944"
"","EPstroop","83","242901","0.0-8.58-0.58","604","","","STROOPmain","","58","2","2","914.5921237103357","1200","700","1","1","241118.09999999963","242033.7999999998","242638.5"
"","EPstroop","84","245414","0.0-8.59-0.59","926","","","STROOPmain","","59","2","1","884.7419081748453","1200","700","1","0","243340","244224.59999999963","245150.59999999963"
"","EPstroop","85","247542","0.0-8.60-0.60","663","","","STROOPmain","","60","2","2","762.236921627667","1200","700","1","1","245852.7000000002","246615.09999999963","247278.7000000002"
"","EPstroop","86","250178","0.0-8.61-0.61","-1","","","STROOPmain","","61","1","0","731.7116867077543","1200","700","-1","0","247980.7000000002","248712.89999999944","249913.7999999998"
"","EPstroop","87","253179","0.0-8.62-0.62","-1","","","STROOPmain","","62","0","2","1098.9358329788884","1200","700","-1","0","250616.09999999963","251714.59999999963","252915"
"","EPstroop","88","255850","0.0-8.63-0.63","-1","","","STROOPmain","","63","0","0","768.9506901854348","1200","700","-1","1","253617","254385.89999999944","255587.2000000002"
"","EPstroop","89","258327","0.0-8.64-0.64","791","","","STROOPmain","","64","2","2","982.4627115795846","1200","700","1","1","256288.7999999998","257271.39999999944","258062.5"
"","EPstroop","90","260902","0.0-8.65-0.65","825","","","STROOPmain","","65","1","1","1046.1457381829678","1200","700","1","1","258765.09999999963","259813.2999999998","260638.5"
"","EPstroop","91","262999","0.0-8.66-0.66","471","","","STROOPmain","","66","1","1","922.5777103079084","1200","700","1","1","261339.7999999998","262263.2000000002","262734.5"
"","EPstroop","92","265110","0.0-8.67-0.67","666","","","STROOPmain","","67","1","2","742.123188275565","1200","700","1","0","263437.5999999996","264180.2000000002","264846.89999999944"
"","EPstroop","93","268018","0.0-8.68-0.68","-1","","","STROOPmain","","68","2","1","1003.7364644712957","1200","700","-1","0","265548.7999999998","266553.89999999944","267755.2999999998"
"","EPstroop","94","270213","0.0-8.69-0.69","710","","","STROOPmain","","69","2","2","782.1253262681171","1200","700","1","1","268457","269240","269949.7999999998"
"","EPstroop","95","272454","0.0-8.70-0.70","513","","","STROOPmain","","70","1","1","1025.8879733230067","1200","700","1","1","270650.89999999944","271677","272190.5999999996"
"","EPstroop","96","274821","0.0-8.71-0.71","608","","","STROOPmain","","71","2","2","1056.0760036089778","1200","700","1","1","272892.39999999944","273949.5","274557.7999999998"
"true","fullscreen","97","275822","0.0-9.0","","","","","","","","","","","","","","","",""
"","external-html","98","455315","0.0-10.0","179244","","./STROOP_html/endscreen.html","endscreen","","","","","","","","","","","",""
