"success","trial_type","trial_index","time_elapsed","internal_node_id","rt","keypressed","url","trial_tag","value","tnum","string","color","fixdur","respdelay","feedbackdur","correct","congruent","startTime","displayTime","feedbackTime"
"true","fullscreen","0","4895","0.0-0.0","","","","","","","","","","","","","","","",""
"","external-html","1","48488","0.0-1.0-0.0","43536","-1","STROOP_html/welcome1.html","instructions","","","","","","","","","","","",""
"","external-html","2","58359","0.0-2.0-0.0","9786","-1","STROOP_html/welcome2.html","instructions","","","","","","","","","","","",""
"","call-function","3","58442","0.0-3.0","","","","","80.40000000037253","","","","","","","","","","",""
"","EPstroop","4","61129","0.0-4.0-0.0","-1","","","STROOPtrain","","0","0","1","769.2695652646738","1200","700","-1","0","58889.89999999851","59664.39999999851","60871.79999999888"
"","EPstroop","5","63080","0.0-4.1-0.1","143","","","STROOPtrain","","0","1","0","1096.2252744608693","1200","700","1","0","61578.699999999255","62680.29999999888","62823.39999999851"
"","EPstroop","6","65465","0.0-4.2-0.2","645","","","STROOPtrain","","0","0","0","1023.5878525013683","1200","700","1","1","63529.09999999963","64561.39999999851","65206.79999999888"
"","EPstroop","7","67640","0.0-4.3-0.3","415","","","STROOPtrain","","0","2","2","1050.3151332483594","1200","700","1","1","65913.39999999851","66967.59999999963","67382.89999999851"
"","EPstroop","8","69833","0.0-4.4-0.4","550","","","STROOPtrain","","0","1","2","931.1438912100393","1200","700","0","0","68089.39999999851","69024.39999999851","69574.79999999888"
"","EPstroop","9","72616","0.0-4.5-0.5","-1","","","STROOPtrain","","0","2","1","866.9604348075413","1200","700","-1","0","70282.59999999963","71151.89999999851","72360.19999999925"
"","EPstroop","10","74904","0.0-4.6-0.6","654","","","STROOPtrain","","0","0","0","923.8038759738035","1200","700","1","1","73064.19999999925","73992.19999999925","74645.89999999851"
"","EPstroop","11","77433","0.0-4.7-0.7","977","","","STROOPtrain","","0","2","2","843.9672816116441","1200","700","1","1","75352.89999999851","76199.59999999963","77176.69999999925"
"","EPstroop","12","79976","0.0-4.8-0.8","919","","","STROOPtrain","","0","0","2","912.0395341273043","1200","700","0","0","77881.79999999888","78800.29999999888","79718.89999999851"
"","EPstroop","13","82920","0.0-4.9-0.9","-1","","","STROOPtrain","","0","2","2","1027.0125886183569","1200","700","-1","1","80424.79999999888","81456.89999999851","82664"
"","EPstroop","14","85560","0.0-4.10-0.10","903","","","STROOPtrain","","0","0","0","1024.4517612003356","1200","700","1","1","83368.89999999851","84399.79999999888","85303.19999999925"
"","EPstroop","15","88056","0.0-4.11-0.11","719","","","STROOPtrain","","0","1","1","1064.0683159111618","1200","700","1","1","86009.59999999963","87079.59999999963","87798.79999999888"
"","EPstroop","16","90552","0.0-4.12-0.12","711","","","STROOPtrain","","0","2","2","1074.308194435736","1200","700","1","1","88505.19999999925","89583.89999999851","90294.5"
"","EPstroop","17","93096","0.0-4.13-0.13","1126","","","STROOPtrain","","0","1","1","704.2603977405208","1200","700","1","1","91000.19999999925","91712.5","92838.89999999851"
"","EPstroop","18","95416","0.0-4.14-0.14","702","","","STROOPtrain","","0","1","1","909.339447470108","1200","700","1","1","93545.09999999963","94457.09999999963","95158.79999999888"
"","EPstroop","19","97800","0.0-4.15-0.15","726","","","STROOPtrain","","0","0","0","946.5778400300945","1200","700","1","1","95865.19999999925","96816.69999999925","97542.59999999963"
"","EPstroop","20","99656","0.0-4.16-0.16","447","","","STROOPtrain","","0","2","0","701.0249660485866","1200","700","0","0","98248.19999999925","98951.59999999963","99398.69999999925"
"","EPstroop","21","102071","0.0-4.17-0.17","638","","","STROOPtrain","","0","1","1","1065.5534484632606","1200","700","1","1","100105.5","101176.59999999963","101814.79999999888"
"","external-html","22","105559","0.0-5.0-0.0","3421","-1","STROOP_html/welcome3.html","instructions","","","","","","","","","","","",""
"","call-function","23","105621","0.0-6.0","","","","","57.59999999962747","","","","","","","","","","",""
"","call-function","24","105685","0.0-7.0","","","","","63.5","","","","","","","","","","",""
"","EPstroop","25","108064","0.0-8.0-0.0","742","","","STROOPmain","","0","0","0","917.8966228209518","1200","700","1","1","106134.69999999925","107057.29999999888","107805.19999999925"
"","EPstroop","26","110409","0.0-8.1-0.1","654","","","STROOPmain","","1","1","1","979.1628748486428","1200","700","1","1","108513.09999999963","109496.69999999925","110151.09999999963"
"","EPstroop","27","112457","0.0-8.2-0.2","399","","","STROOPmain","","2","0","0","933.8283860068514","1200","700","1","1","110858.29999999888","111800.09999999963","112199.19999999925"
"","EPstroop","28","114905","0.0-8.3-0.3","671","","","STROOPmain","","3","1","1","1062.6490501832527","1200","700","1","1","112906","113976.09999999963","114647.09999999963"
"","EPstroop","29","117400","0.0-8.4-0.4","805","","","STROOPmain","","4","0","0","977.2425556215686","1200","700","1","1","115353.59999999963","116337.29999999888","117142.09999999963"
"","EPstroop","30","119640","0.0-8.5-0.5","783","","","STROOPmain","","5","0","0","749.9033105610695","1200","700","1","1","117848.79999999888","118599.59999999963","119383.39999999851"
"","EPstroop","31","122360","0.0-8.6-0.6","-1","","","STROOPmain","","6","2","1","801.4117685090966","1200","700","-1","0","120089","120896.29999999888","122103.69999999925"
"","EPstroop","32","124776","0.0-8.7-0.7","846","","","STROOPmain","","7","2","2","857.9669106853735","1200","700","1","1","122809.39999999851","123672.29999999888","124519"
"","EPstroop","33","126856","0.0-8.8-0.8","647","","","STROOPmain","","8","1","0","722.9322037333221","1200","700","0","0","125224.59999999963","125951.69999999925","126598.79999999888"
"","EPstroop","34","129432","0.0-8.9-0.9","1055","","","STROOPmain","","9","1","1","810.3894317657126","1200","700","1","1","127305.09999999963","128120.19999999925","129175.09999999963"
"","EPstroop","35","131625","0.0-8.10-0.10","662","","","STROOPmain","","10","2","2","816.3663868693166","1200","700","1","1","129880.59999999963","130704.39999999851","131367.19999999925"
"","EPstroop","36","133913","0.0-8.11-0.11","783","","","STROOPmain","","11","1","1","794.7954268107487","1200","700","1","1","132073.3999999985","132871.79999999888","133655.09999999963"
"","EPstroop","37","136170","0.0-8.12-0.12","806","","","STROOPmain","","12","2","2","740.7714569518869","1200","700","1","1","134360.8999999985","135104.09999999963","135910.19999999925"
"","EPstroop","38","139090","0.0-8.13-0.13","-1","","","STROOPmain","","13","2","0","1001.9521190809887","1200","700","-1","0","136617.8999999985","137623.79999999888","138832.09999999963"
"","EPstroop","39","141897","0.0-8.14-0.14","-1","","","STROOPmain","","14","2","0","887.6042670056106","1200","700","-1","0","139537.69999999925","140431.8999999985","141639.69999999925"
"","EPstroop","40","144025","0.0-8.15-0.15","702","","","STROOPmain","","15","2","2","711.7576000577216","1200","700","1","1","142345.19999999925","143064.09999999963","143766"
"","EPstroop","41","145945","0.0-8.16-0.16","415","","","STROOPmain","","16","1","1","792.4427637354867","1200","700","1","1","144473.5","145271.79999999888","145686.79999999888"
"","EPstroop","42","148457","0.0-8.17-0.17","942","","","STROOPmain","","17","2","1","859.1302084681646","1200","700","1","0","146392.5","147256.3999999985","148198"
"","EPstroop","43","150617","0.0-8.18-0.18","663","","","STROOPmain","","18","1","1","784.917517127893","1200","700","1","1","148904.29999999888","149695.59999999963","150359.09999999963"
"","EPstroop","44","153011","0.0-8.19-0.19","686","","","STROOPmain","","19","0","2","988.4708080635514","1200","700","1","0","151065.09999999963","152056.09999999963","152742.19999999925"
"","EPstroop","45","155434","0.0-8.20-0.20","822","","","STROOPmain","","20","2","1","892.2345551000078","1200","700","1","0","153459.19999999925","154352.59999999963","155175"
"","EPstroop","46","157962","0.0-8.21-0.21","902","","","STROOPmain","","21","0","2","910.4163298749152","1200","700","1","0","155882.3999999985","156800.3999999985","157702.19999999925"
"","EPstroop","47","160713","0.0-8.22-0.22","1015","","","STROOPmain","","22","1","2","1028.2284825557426","1200","700","1","0","158409.79999999888","159439.8999999985","160454.8999999985"
"","EPstroop","48","162985","0.0-8.23-0.23","774","","","STROOPmain","","23","0","0","786.2554258771197","1200","700","1","1","161161.19999999925","161952.79999999888","162726.5"
"","EPstroop","49","165785","0.0-8.24-0.24","1175","","","STROOPmain","","24","1","0","917.189904701777","1200","700","1","0","163432.79999999888","164351.59999999963","165527.29999999888"
"","EPstroop","50","168137","0.0-8.25-0.25","639","","","STROOPmain","","25","0","0","1000.5769961358193","1200","700","1","1","166232.8999999985","167240.19999999925","167879.09999999963"
"","EPstroop","51","170168","0.0-8.26-0.26","463","","","STROOPmain","","26","1","1","857.2335809468765","1200","700","1","1","168585.3999999985","169447.79999999888","169911"
"","EPstroop","52","172233","0.0-8.27-0.27","655","","","STROOPmain","","27","1","1","702.7993033097105","1200","700","1","1","170616","171320","171975"
"","EPstroop","53","174776","0.0-8.28-0.28","855","","","STROOPmain","","28","2","1","977.4611392935527","1200","700","1","0","172681","173663.79999999888","174518.3999999985"
"","EPstroop","54","177210","0.0-8.29-0.29","687","","","STROOPmain","","29","1","1","1039.8913580677236","1200","700","1","1","175224","176264.19999999925","176951.19999999925"
"","EPstroop","55","179370","0.0-8.30-0.30","422","","","STROOPmain","","30","1","2","1029.813658260105","1200","700","1","0","177657.8999999985","178688.3999999985","179111"
"","EPstroop","56","181881","0.0-8.31-0.31","791","","","STROOPmain","","31","0","1","1013.9748935375092","1200","700","1","0","179818","180831.69999999925","181622.8999999985"
"","EPstroop","57","184537","0.0-8.32-0.32","1190","","","STROOPmain","","32","0","1","755.6676015764175","1200","700","1","0","182328.79999999888","183088.29999999888","184278"
"","EPstroop","58","186713","0.0-8.33-0.33","750","","","STROOPmain","","33","0","0","715.1432936780781","1200","700","1","1","184985.3999999985","185704.5","186454.19999999925"
"","EPstroop","59","189113","0.0-8.34-0.34","637","","","STROOPmain","","34","0","2","1046.7918380889764","1200","700","1","0","187161.19999999925","188217.09999999963","188854.59999999963"
"","EPstroop","60","191433","0.0-8.35-0.35","599","","","STROOPmain","","35","0","0","1014.3201882784467","1200","700","1","1","189560.8999999985","190575.59999999963","191174.8999999985"
"","EPstroop","61","193657","0.0-8.36-0.36","582","","","STROOPmain","","36","0","0","932.7505827282679","1200","700","1","1","191881.3999999985","192816.69999999925","193398.79999999888"
"","EPstroop","62","195689","0.0-8.37-0.37","478","","","STROOPmain","","37","2","2","839.3364438693878","1200","700","1","1","194104.8999999985","194951.8999999985","195430.09999999963"
"","EPstroop","63","197881","0.0-8.38-0.38","471","","","STROOPmain","","38","1","1","1010.294487199263","1200","700","1","1","196137.5","197152.19999999925","197623"
"","EPstroop","64","199944","0.0-8.39-0.39","470","","","STROOPmain","","39","1","1","878.4787620446825","1200","700","1","1","198329.5","199216.69999999925","199686.29999999888"
"","EPstroop","65","202440","0.0-8.40-0.40","1038","","","STROOPmain","","40","2","2","747.7299053477304","1200","700","1","1","200393","201144.69999999925","202183"
"","EPstroop","66","204760","0.0-8.41-0.41","838","","","STROOPmain","","41","2","2","769.5618272182865","1200","700","1","1","202888.69999999925","203664.5","204503"
"","EPstroop","67","206842","0.0-8.42-0.42","558","","","STROOPmain","","42","2","2","812.3418073978377","1200","700","1","1","205209","206024.3999999985","206582"
"","EPstroop","68","209681","0.0-8.43-0.43","-1","","","STROOPmain","","43","2","0","918.4653700696743","1200","700","-1","0","207290.09999999963","208216.79999999888","209424.09999999963"
"","EPstroop","69","212153","0.0-8.44-0.44","662","","","STROOPmain","","44","0","0","1099.373636335302","1200","700","1","1","210129.5","211232.19999999925","211894.19999999925"
"","EPstroop","70","214346","0.0-8.45-0.45","510","","","STROOPmain","","45","1","1","963.2138662483669","1200","700","1","1","212601.09999999963","213575.69999999925","214085.79999999888"
"","EPstroop","71","216681","0.0-8.46-0.46","606","","","STROOPmain","","46","1","1","1015.4395397840835","1200","700","1","1","214794.19999999925","215816.79999999888","216423"
"","EPstroop","72","218889","0.0-8.47-0.47","583","","","STROOPmain","","47","1","1","911.8951272290294","1200","700","1","1","217129.29999999888","218048","218630.79999999888"
"","EPstroop","73","220857","0.0-8.48-0.48","439","","","STROOPmain","","48","2","2","816.8893345998921","1200","700","1","1","219337.8999999985","220159.59999999963","220599.29999999888"
"","EPstroop","74","223864","0.0-8.49-0.49","-1","","","STROOPmain","","49","0","2","1092.6855664716613","1200","700","-1","0","221305.3999999985","222399.59999999963","223607.8999999985"
"","EPstroop","75","226329","0.0-8.50-0.50","750","","","STROOPmain","","50","0","0","999.9218967610902","1200","700","1","1","224312.19999999925","225320.29999999888","226071"
"","EPstroop","76","228232","0.0-8.51-0.51","487","","","STROOPmain","","51","1","1","706.2059058533421","1200","700","1","1","226778","227487.8999999985","227975"
"","EPstroop","77","230968","0.0-8.52-0.52","1143","","","STROOPmain","","52","2","0","880.9374719446369","1200","700","1","0","228680.8999999985","229568.09999999963","230711.29999999888"
"","EPstroop","78","233145","0.0-8.53-0.53","573","","","STROOPmain","","53","0","0","894.2704223805351","1200","700","1","1","231416.79999999888","232312.5","232886.09999999963"
"","EPstroop","79","235417","0.0-8.54-0.54","478","","","STROOPmain","","54","2","2","1081.4309111826663","1200","700","1","1","233593.29999999888","234680.69999999925","235159"
"","EPstroop","80","237640","0.0-8.55-0.55","495","","","STROOPmain","","55","0","1","1015.1424530837728","1200","700","1","0","235864.69999999925","236887.8999999985","237383.09999999963"
"","EPstroop","81","239609","0.0-8.56-0.56","334","","","STROOPmain","","56","1","2","926.1173093882542","1200","700","1","0","238087.8999999985","239016.79999999888","239351"
"","EPstroop","82","241577","0.0-8.57-0.57","535","","","STROOPmain","","57","0","0","718.9116636507146","1200","700","1","1","240057.3999999985","240783.59999999963","241319.19999999925"
"","EPstroop","83","243945","0.0-8.58-0.58","669","","","STROOPmain","","58","2","2","989.3155644679039","1200","700","1","1","242025.09999999963","243017","243685.79999999888"
"","EPstroop","84","246232","0.0-8.59-0.59","782","","","STROOPmain","","59","1","2","796.1841361114217","1200","700","1","0","244393","245191.79999999888","245974.3999999985"
"","EPstroop","85","248345","0.0-8.60-0.60","503","","","STROOPmain","","60","2","2","899.8991003787892","1200","700","1","1","246680.79999999888","247583.59999999963","248087"
"","EPstroop","86","250440","0.0-8.61-0.61","646","","","STROOPmain","","61","2","2","739.3483808841196","1200","700","1","1","248793.19999999925","249536.3999999985","250183.09999999963"
"","EPstroop","87","252281","0.0-8.62-0.62","415","","","STROOPmain","","62","1","1","713.0203929881218","1200","700","1","1","250888.19999999925","251607.5","252023.09999999963"
"","EPstroop","88","254394","0.0-8.63-0.63","662","","","STROOPmain","","63","1","0","740.503646543592","1200","700","1","0","252728.59999999963","253472.09999999963","254134"
"","EPstroop","89","256538","0.0-8.64-0.64","638","","","STROOPmain","","64","2","2","797.305306792135","1200","700","1","1","254841.29999999888","255639.69999999925","256278"
"","EPstroop","90","259114","0.0-8.65-0.65","1095","","","STROOPmain","","65","0","1","772.8267209963733","1200","700","0","0","256985","257759.79999999888","258854.69999999925"
"","EPstroop","91","261257","0.0-8.66-0.66","703","","","STROOPmain","","66","2","2","729.7463901026281","1200","700","1","1","259560.8999999985","260295.79999999888","260999"
"","EPstroop","92","264226","0.0-8.67-0.67","-1","","","STROOPmain","","67","1","0","1051.6828470877083","1200","700","-1","0","261704.69999999925","262760.3999999985","263968.8999999985"
"","EPstroop","93","266362","0.0-8.68-0.68","703","","","STROOPmain","","68","0","0","725.3547135976683","1200","700","1","1","264672.7999999989","265400.19999999925","266102.8999999985"
"","EPstroop","94","268905","0.0-8.69-0.69","742","","","STROOPmain","","69","2","2","1088.2415311998016","1200","700","1","1","266809.5999999996","267904.3999999985","268646.7999999989"
"","EPstroop","95","271129","0.0-8.70-0.70","768","","","STROOPmain","","70","0","0","742.3695540745148","1200","700","1","1","269351.8999999985","270101.7999999989","270870"
"","EPstroop","96","273530","0.0-8.71-0.71","783","","","STROOPmain","","71","0","0","905.4893197313575","1200","700","1","1","271576.7999999989","272487.7999999989","273270.8999999985"
"true","fullscreen","97","274538","0.0-9.0","","","","","","","","","","","","","","","",""
"","external-html","98","280376","0.0-10.0","5629","","./STROOP_html/endscreen.html","endscreen","","","","","","","","","","","",""
