"success","trial_type","trial_index","time_elapsed","internal_node_id","rt","keypressed","url","trial_tag","value","tnum","string","color","fixdur","respdelay","feedbackdur","correct","congruent","startTime","displayTime","feedbackTime"
"true","fullscreen","0","1926","0.0-0.0","","","","","","","","","","","","","","","",""
"","external-html","1","14954","0.0-1.0-0.0","12957","-1","STROOP_html/welcome1.html","instructions","","","","","","","","","","","",""
"","external-html","2","19819","0.0-2.0-0.0","4781","-1","STROOP_html/welcome2.html","instructions","","","","","","","","","","","",""
"","call-function","3","19881","0.0-3.0","","","","","57.79999998211861","","","","","","","","","","",""
"","EPstroop","4","22088","0.0-4.0-0.0","740","","","STROOPtrain","","0","0","0","743.5987045944588","1200","700","1","1","20295.5","21042.20000001788","21782.5"
"","EPstroop","5","24378","0.0-4.1-0.1","489","","","STROOPtrain","","0","2","2","1073.4068651720381","1200","700","1","1","22504","23582.100000023842","24071.20000001788"
"","EPstroop","6","26258","0.0-4.2-0.2","407","","","STROOPtrain","","0","2","1","752.5450149065769","1200","700","1","0","24793.40000000596","25552.40000000596","25959.5"
"","EPstroop","7","28379","0.0-4.3-0.3","499","","","STROOPtrain","","0","2","2","884.465013692427","1200","700","1","1","26673.40000000596","27572.20000001788","28071.20000001788"
"","EPstroop","8","30470","0.0-4.4-0.4","611","","","STROOPtrain","","0","2","0","773.8581405796364","1200","700","1","0","28793.80000001192","29572.100000023842","30183.30000001192"
"","EPstroop","9","32390","0.0-4.5-0.5","481","","","STROOPtrain","","0","0","0","736.1645367806309","1200","700","1","1","30884.80000001192","31621.90000000596","32103.30000001192"
"","EPstroop","10","34358","0.0-4.6-0.6","538","","","STROOPtrain","","0","2","2","727.1314697783852","1200","700","1","1","32805.20000001788","33532.90000000596","34070.40000000596"
"","EPstroop","11","36438","0.0-4.7-0.7","480","","","STROOPtrain","","0","1","2","892.5164456114915","1200","700","1","0","34772.60000002384","35670.10000002384","36150.5"
"","EPstroop","12","38438","0.0-4.8-0.8","517","","","STROOPtrain","","0","0","0","769.5611132163692","1200","700","1","1","36853","37633.90000000596","38150.70000001788"
"","EPstroop","13","41170","0.0-4.9-0.9","-1","","","STROOPtrain","","0","1","0","828.1508933207695","1200","700","-1","0","38852.90000000596","39682.10000002384","40883"
"","EPstroop","14","43782","0.0-4.10-0.10","1036","","","STROOPtrain","","0","0","2","873.6514601186511","1200","700","1","0","41584.80000001192","42459","43495.20000001788"
"","EPstroop","15","45974","0.0-4.11-0.11","517","","","STROOPtrain","","0","1","1","972.1319472513401","1200","700","1","1","44197.20000001788","45169.90000000596","45687.20000001788"
"","EPstroop","16","48295","0.0-4.12-0.12","543","","","STROOPtrain","","0","1","1","1075.7126423513619","1200","700","1","1","46388.5","47464.90000000596","48007.5"
"","EPstroop","17","50454","0.0-4.13-0.13","550","","","STROOPtrain","","0","2","2","906.3383985896959","1200","700","1","1","48709.70000001788","49617","50167.20000001788"
"","EPstroop","18","52631","0.0-4.14-0.14","578","","","STROOPtrain","","0","1","1","895.1478020517466","1200","700","1","1","50868.90000000596","51765.40000000596","52343.10000002384"
"","EPstroop","19","54886","0.0-4.15-0.15","584","","","STROOPtrain","","0","0","0","960.5306801083186","1200","700","1","1","53046.20000001788","54015.10000002384","54599.20000001788"
"","EPstroop","20","57360","0.0-4.16-0.16","728","","","STROOPtrain","","0","1","1","1033.3079366079735","1200","700","1","1","55301.10000002384","56335.20000001788","57063.20000001788"
"","EPstroop","21","59717","0.0-4.17-0.17","815","","","STROOPtrain","","0","0","1","840.2082045271391","1200","700","1","0","57774.40000000596","58615.5","59430.70000001788"
"","external-html","22","62393","0.0-5.0-0.0","2605","-1","STROOP_html/welcome3.html","instructions","","","","","","","","","","","",""
"","call-function","23","62462","0.0-6.0","","","","","60.900000005960464","","","","","","","","","","",""
"","call-function","24","62525","0.0-7.0","","","","","62.89999997615814","","","","","","","","","","",""
"","EPstroop","25","64751","0.0-8.0-0.0","594","","","STROOPmain","","0","1","1","917.8880228836366","1200","700","1","1","62942.90000000596","63861","64461.20000001788"
"","EPstroop","26","66729","0.0-8.1-0.1","554","","","STROOPmain","","1","0","0","720.0509961899986","1200","700","1","1","65163.70000001788","65885.30000001192","66439.60000002384"
"","EPstroop","27","69241","0.0-8.2-0.2","729","","","STROOPmain","","2","0","1","1080.7219244647756","1200","700","1","0","67141.10000002384","68222.20000001788","68951.5"
"","EPstroop","28","71642","0.0-8.3-0.3","616","","","STROOPmain","","3","0","0","1081.7298433181259","1200","700","1","1","69653.30000001192","70735","71351.80000001192"
"","EPstroop","29","73881","0.0-8.4-0.4","723","","","STROOPmain","","4","2","2","813.2208972368848","1200","700","1","1","72054.20000001788","72868.10000002384","73591.5"
"","EPstroop","30","75881","0.0-8.5-0.5","435","","","STROOPmain","","5","1","1","861.6789272532662","1200","700","1","1","74293.30000001192","75155.70000001788","75591.60000002384"
"","EPstroop","31","77800","0.0-8.6-0.6","377","","","STROOPmain","","6","0","0","838.2152303080952","1200","700","1","1","76293.90000000596","77133.60000002384","77510.5"
"","EPstroop","32","79721","0.0-8.7-0.7","505","","","STROOPmain","","7","0","0","713.070069126248","1200","700","1","1","78212.60000002384","78926.20000001788","79431.5"
"","EPstroop","33","81897","0.0-8.8-0.8","454","","","STROOPmain","","8","0","0","1019.0161518781556","1200","700","1","1","80133.20000001788","81152.90000000596","81607.5"
"","EPstroop","34","84152","0.0-8.9-0.9","652","","","STROOPmain","","9","2","2","901.3164171259228","1200","700","1","1","82309.40000000596","83210.70000001788","83862.70000001788"
"","EPstroop","35","86489","0.0-8.10-0.10","733","","","STROOPmain","","10","1","0","900.0951671882048","1200","700","1","0","84563.60000002384","85465.40000000596","86198.5"
"","EPstroop","36","88600","0.0-8.11-0.11","483","","","STROOPmain","","11","0","0","926.1804849093564","1200","700","1","1","86900.90000000596","87827.70000001788","88310.60000002384"
"","EPstroop","37","90985","0.0-8.12-0.12","719","","","STROOPmain","","12","2","2","964.6023142315457","1200","700","1","1","89012","89976.5","90695.5"
"","EPstroop","38","93064","0.0-8.13-0.13","590","","","STROOPmain","","13","1","1","787.0037105339766","1200","700","1","1","91396.5","92184.90000000596","92774.5"
"","EPstroop","39","95305","0.0-8.14-0.14","742","","","STROOPmain","","14","1","1","796.9996752005595","1200","700","1","1","93476.40000000596","94273.60000002384","95015.40000000596"
"","EPstroop","40","97129","0.0-8.15-0.15","404","","","STROOPmain","","15","1","1","716.6908269897065","1200","700","1","1","95717.5","96435","96839.40000000596"
"","EPstroop","41","99257","0.0-8.16-0.16","391","","","STROOPmain","","16","1","0","1034.0614261966289","1200","700","1","0","97541.5","98576.30000001192","98967.30000001192"
"","EPstroop","42","101529","0.0-8.17-0.17","581","","","STROOPmain","","17","0","0","989.4203853509298","1200","700","1","1","99669","100658.30000001192","101239.40000000596"
"","EPstroop","43","103674","0.0-8.18-0.18","485","","","STROOPmain","","18","0","0","956.3458340196826","1200","700","1","1","101941.60000002384","102898.5","103383.80000001192"
"","EPstroop","44","105816","0.0-8.19-0.19","713","","","STROOPmain","","19","2","2","727.5970591472615","1200","700","1","1","104085.80000001192","104813.40000000596","105526.5"
"","EPstroop","45","108394","0.0-8.20-0.20","794","","","STROOPmain","","20","1","1","1080.2663539564621","1200","700","1","1","106228","107308.70000001788","108103.20000001788"
"","EPstroop","46","110601","0.0-8.21-0.21","773","","","STROOPmain","","21","0","2","731.7480546704211","1200","700","1","0","108806.70000001788","109538.40000000596","110311.80000001192"
"","EPstroop","47","112826","0.0-8.22-0.22","702","","","STROOPmain","","22","0","1","819.5340952947272","1200","700","1","0","111013.5","111832.90000000596","112535.40000000596"
"","EPstroop","48","115194","0.0-8.23-0.23","588","","","STROOPmain","","23","0","0","1077.263100750166","1200","700","1","1","113237.90000000596","114315.30000001192","114903.40000000596"
"","EPstroop","49","117609","0.0-8.24-0.24","910","","","STROOPmain","","24","1","2","802.2676938223674","1200","700","1","0","115606.10000002384","116409","117319.30000001192"
"","EPstroop","50","119785","0.0-8.25-0.25","590","","","STROOPmain","","25","0","0","882.8454384612917","1200","700","1","1","118021.30000001192","118905.30000001192","119495.40000000596"
"","EPstroop","51","122569","0.0-8.26-0.26","1020","","","STROOPmain","","26","2","1","1056.5436274329327","1200","700","1","0","120197.80000001192","121259.5","122279.40000000596"
"","EPstroop","52","124729","0.0-8.27-0.27","683","","","STROOPmain","","27","2","2","774.0724441342136","1200","700","1","1","122981","123755.90000000596","124439.40000000596"
"","EPstroop","53","127147","0.0-8.28-0.28","822","","","STROOPmain","","28","2","1","892.6833003826746","1200","700","1","0","125141.20000001788","126033.60000002384","126855.60000002384"
"","EPstroop","54","129499","0.0-8.29-0.29","642","","","STROOPmain","","29","2","2","1007.0481569941512","1200","700","1","1","127557.10000002384","128565.5","129207.60000002384"
"","EPstroop","55","131917","0.0-8.30-0.30","813","","","STROOPmain","","30","1","2","902.3700353397995","1200","700","1","0","129909","130812","131624.80000001192"
"","EPstroop","56","134363","0.0-8.31-0.31","672","","","STROOPmain","","31","1","1","1070.833666683605","1200","700","1","1","132327.40000000596","133398.60000002384","134070.5"
"","EPstroop","57","136523","0.0-8.32-0.32","468","","","STROOPmain","","32","2","2","990.0317589401959","1200","700","1","1","134772.70000001788","135763.20000001788","136231.40000000596"
"","EPstroop","58","138796","0.0-8.33-0.33","532","","","STROOPmain","","33","0","0","1038.4059213799721","1200","700","1","1","136932.5","137971.30000001192","138503.70000001788"
"","EPstroop","59","140940","0.0-8.34-0.34","678","","","STROOPmain","","34","2","2","762.0964658850042","1200","700","1","1","139206.40000000596","139968.90000000596","140647.30000001192"
"","EPstroop","60","143051","0.0-8.35-0.35","569","","","STROOPmain","","35","0","0","840.366108526647","1200","700","1","1","141349.60000002384","142190.60000002384","142759.40000000596"
"","EPstroop","61","145387","0.0-8.36-0.36","571","","","STROOPmain","","36","0","1","1062.094621702175","1200","700","1","0","143461","144523.80000001192","145094.80000001192"
"","EPstroop","62","147724","0.0-8.37-0.37","764","","","STROOPmain","","37","0","2","869.9678813455387","1200","700","1","0","145796.70000001788","146667","147431.40000000596"
"","EPstroop","63","149804","0.0-8.38-0.38","641","","","STROOPmain","","38","2","2","736.9563871737854","1200","700","1","1","148133.40000000596","148870.60000002384","149511.70000001788"
"","EPstroop","64","151963","0.0-8.39-0.39","644","","","STROOPmain","","39","1","1","812.0631331295707","1200","700","1","1","150213.70000001788","151026.20000001788","151670.30000001192"
"","EPstroop","65","153980","0.0-8.40-0.40","510","","","STROOPmain","","40","1","1","803.7807498984747","1200","700","1","1","152372.80000001192","153176.70000001788","153687.30000001192"
"","EPstroop","66","156188","0.0-8.41-0.41","490","","","STROOPmain","","41","0","1","1014.188899990163","1200","700","1","0","154389.60000002384","155404.80000001192","155895.30000001192"
"","EPstroop","67","158635","0.0-8.42-0.42","662","","","STROOPmain","","42","2","2","1083.4055658652994","1200","700","1","1","156597.30000001192","157681.20000001788","158343.5"
"","EPstroop","68","160891","0.0-8.43-0.43","604","","","STROOPmain","","43","2","1","949.1454428109026","1200","700","0","0","159044.90000000596","159995.40000000596","160599.5"
"","EPstroop","69","162923","0.0-8.44-0.44","600","","","STROOPmain","","44","0","0","730.8742273253653","1200","700","1","1","161300.40000000596","162031.5","162631.5"
"","EPstroop","70","165210","0.0-8.45-0.45","685","","","STROOPmain","","45","1","2","900.2705120696417","1200","700","1","0","163332.5","164233.70000001788","164918.30000001192"
"","EPstroop","71","167499","0.0-8.46-0.46","758","","","STROOPmain","","46","1","1","828.1462553750735","1200","700","1","1","165619.80000001192","166449.10000002384","167207.5"
"","EPstroop","72","169772","0.0-8.47-0.47","580","","","STROOPmain","","47","2","2","990.2130327331187","1200","700","1","1","167908.60000002384","168899.30000001192","169479.40000000596"
"","EPstroop","73","171917","0.0-8.48-0.48","581","","","STROOPmain","","48","1","1","860.2613712069561","1200","700","1","1","170181.60000002384","171042.80000001192","171623.60000002384"
"","EPstroop","74","174322","0.0-8.49-0.49","669","","","STROOPmain","","49","1","1","1027.8661278951413","1200","700","1","1","172326.5","173354","174023.5"
"","EPstroop","75","176477","0.0-8.50-0.50","604","","","STROOPmain","","50","1","2","841.3335288299131","1200","700","1","0","174731.60000002384","175579.30000001192","176183.5"
"","EPstroop","76","178667","0.0-8.51-0.51","636","","","STROOPmain","","51","2","2","851.7312487080852","1200","700","1","1","176886.5","177738.10000002384","178374.60000002384"
"","EPstroop","77","181291","0.0-8.52-0.52","857","","","STROOPmain","","52","0","0","1064.7564802537943","1200","700","1","1","179076.70000001788","180141.70000001788","180999.40000000596"
"","EPstroop","78","183532","0.0-8.53-0.53","583","","","STROOPmain","","53","2","0","954.0223678525426","1200","700","1","0","181700.90000000596","182656.10000002384","183239.70000001788"
"","EPstroop","79","185805","0.0-8.54-0.54","804","","","STROOPmain","","54","1","1","764.6465485428988","1200","700","1","1","183941.60000002384","184707","185511.40000000596"
"","EPstroop","80","188285","0.0-8.55-0.55","755","","","STROOPmain","","55","0","0","1022.3933826376137","1200","700","1","1","186212.90000000596","187235.80000001192","187990.70000001788"
"","EPstroop","81","190461","0.0-8.56-0.56","586","","","STROOPmain","","56","2","2","887.1838362473649","1200","700","1","1","188692.30000001192","189580.30000001192","190166.5"
"","EPstroop","82","192830","0.0-8.57-0.57","652","","","STROOPmain","","57","2","2","1000.9329544382908","1200","700","1","1","190868.30000001192","191883","192535.40000000596"
"","EPstroop","83","195359","0.0-8.58-0.58","860","","","STROOPmain","","58","0","2","966.9570501068291","1200","700","1","0","193237.10000002384","194203.70000001788","195063.90000000596"
"","EPstroop","84","197901","0.0-8.59-0.59","820","","","STROOPmain","","59","2","0","1020.4723669862703","1200","700","1","0","195765.70000001788","196786.40000000596","197606.30000001192"
"","EPstroop","85","200589","0.0-8.60-0.60","1084","","","STROOPmain","","60","2","2","902.5314283313588","1200","700","1","1","198308.20000001788","199210.80000001192","200295.5"
"","EPstroop","86","203276","0.0-8.61-0.61","-1","","","STROOPmain","","61","1","1","782.3144182874219","1200","700","-1","1","200997","201780.5","202981.30000001192"
"","EPstroop","87","206133","0.0-8.62-0.62","-1","","","STROOPmain","","62","1","0","955.6619686417705","1200","700","-1","0","203682.60000002384","204638.70000001788","205839.30000001192"
"","EPstroop","88","208445","0.0-8.63-0.63","588","","","STROOPmain","","63","2","0","1020.0854472665351","1200","700","1","0","206540.70000001788","207562.20000001788","208150.60000002384"
"","EPstroop","89","210750","0.0-8.64-0.64","733","","","STROOPmain","","64","1","1","869.3354135573629","1200","700","1","1","208852.30000001192","209722.20000001788","210455.30000001192"
"","EPstroop","90","212559","0.0-8.65-0.65","361","","","STROOPmain","","65","0","2","735.5530601492931","1200","700","1","0","211157","211902","212263.30000001192"
"","EPstroop","91","214542","0.0-8.66-0.66","549","","","STROOPmain","","66","1","1","731.9225517923","1200","700","1","1","212966.30000001192","213698.10000002384","214247.5"
"","EPstroop","92","216621","0.0-8.67-0.67","378","","","STROOPmain","","67","2","0","999.0226145724125","1200","700","1","0","214949.40000000596","215948.90000000596","216326.70000001788"
"","EPstroop","93","219117","0.0-8.68-0.68","732","","","STROOPmain","","68","2","2","1062.0196484967566","1200","700","1","1","217028.20000001788","218091.30000001192","218823.30000001192"
"","EPstroop","94","221406","0.0-8.69-0.69","780","","","STROOPmain","","69","2","1","807.8225191559612","1200","700","1","0","219524.40000000596","220331.60000002384","221111.30000001192"
"","EPstroop","95","223630","0.0-8.70-0.70","465","","","STROOPmain","","70","1","0","1055.1230076641427","1200","700","1","0","221813.40000000596","222869.70000001788","223335.30000001192"
"","EPstroop","96","226045","0.0-8.71-0.71","679","","","STROOPmain","","71","0","0","1035.4329319525086","1200","700","0","1","224036.70000001788","225072","225751.20000001788"
"true","fullscreen","97","227049","0.0-9.0","","","","","","","","","","","","","","","",""
"","external-html","98","231304","0.0-10.0","4001","","./STROOP_html/endscreen.html","endscreen","","","","","","","","","","","",""
