"success","trial_type","trial_index","time_elapsed","internal_node_id","rt","keypressed","url","trial_tag","value","tnum","string","color","fixdur","respdelay","feedbackdur","correct","congruent","startTime","displayTime","feedbackTime"
"true","fullscreen","0","19718","0.0-0.0","","","","","","","","","","","","","","","",""
"","external-html","1","102238","0.0-1.0-0.0","82445","-1","STROOP_html/welcome1.html","instructions","","","","","","","","","","","",""
"","external-html","2","111439","0.0-2.0-0.0","9009","-1","STROOP_html/welcome2.html","instructions","","","","","","","","","","","",""
"","call-function","3","111508","0.0-3.0","","","","","66.19999998807907","","","","","","","","","","",""
"","EPstroop","4","114285","0.0-4.0-0.0","-1","","","STROOPtrain","","0","1","1","858.5230917318706","1200","700","-1","1","112077.20000001788","112942.80000001192","114150.10000002384"
"","EPstroop","5","116429","0.0-4.1-0.1","439","","","STROOPtrain","","0","1","1","993.5557104749629","1200","700","1","1","114855.70000001788","115854.60000002384","116293.60000002384"
"","EPstroop","6","118669","0.0-4.2-0.2","704","","","STROOPtrain","","0","2","2","823.593119075914","1200","700","1","1","116999","117830","118534.40000000596"
"","EPstroop","7","120782","0.0-4.3-0.3","479","","","STROOPtrain","","0","0","0","925.9882637014169","1200","700","1","1","119239","120167.30000001192","120646.30000001192"
"","EPstroop","8","123733","0.0-4.4-0.4","-1","","","STROOPtrain","","0","0","2","1032.516863097709","1200","700","-1","0","121352.5","122390","123597.80000001192"
"","EPstroop","9","125629","0.0-4.5-0.5","448","","","STROOPtrain","","0","2","2","737.1182120748315","1200","700","1","1","124303.40000000596","125046.30000001192","125494.80000001192"
"","EPstroop","10","128317","0.0-4.6-0.6","-1","","","STROOPtrain","","0","1","0","774.7337782485457","1200","700","-1","0","126199.10000002384","126974.20000001788","128182"
"","EPstroop","11","130989","0.0-4.7-0.7","-1","","","STROOPtrain","","0","1","2","752.6433038787993","1200","700","-1","0","128886.80000001192","129646.60000002384","130854.5"
"","EPstroop","12","133933","0.0-4.8-0.8","1152","","","STROOPtrain","","0","0","0","1080.3504461494845","1200","700","1","1","131559.30000001192","132645.80000001192","133798.30000001192"
"","EPstroop","13","136205","0.0-4.9-0.9","816","","","STROOPtrain","","0","1","1","746.3005452387762","1200","700","1","1","134502.90000000596","135254.5","136070.30000001192"
"","EPstroop","14","138798","0.0-4.10-0.10","880","","","STROOPtrain","","0","2","2","1004.2760931781781","1200","700","1","1","136774.40000000596","137782.30000001192","138662.30000001192"
"","EPstroop","15","141229","0.0-4.11-0.11","903","","","STROOPtrain","","0","1","1","820.883396687439","1200","700","1","1","139367.70000001788","140190.90000000596","141093.5"
"","EPstroop","16","144101","0.0-4.12-0.12","-1","","","STROOPtrain","","0","2","1","951.6436664242825","1200","700","-1","0","141799","142758.80000001192","143966.20000001788"
"","EPstroop","17","146493","0.0-4.13-0.13","808","","","STROOPtrain","","0","0","0","878.39511008711","1200","700","0","1","144670.90000000596","145550.70000001788","146358.60000002384"
"","EPstroop","18","148686","0.0-4.14-0.14","647","","","STROOPtrain","","0","0","0","835.2203141280253","1200","700","1","1","147063.20000001788","147902.20000001788","148549.5"
"","EPstroop","19","150557","0.0-4.15-0.15","416","","","STROOPtrain","","0","2","0","746.9365706057772","1200","700","1","0","149256","150006.5","150422.20000001788"
"","EPstroop","20","152861","0.0-4.16-0.16","712","","","STROOPtrain","","0","0","1","886.4097714054345","1200","700","1","0","151126.5","152014.5","152726.30000001192"
"","EPstroop","21","154783","0.0-4.17-0.17","504","","","STROOPtrain","","0","2","2","706.0231407388254","1200","700","1","1","153431.30000001192","154141.90000000596","154645.60000002384"
"","external-html","22","158591","0.0-5.0-0.0","3684","-1","STROOP_html/welcome3.html","instructions","","","","","","","","","","","",""
"","call-function","23","158649","0.0-6.0","","","","","53.099999994039536","","","","","","","","","","",""
"","call-function","24","158806","0.0-7.0","","","","","156.5","","","","","","","","","","",""
"","EPstroop","25","161255","0.0-8.0-0.0","664","","","STROOPmain","","0","0","1","1063.718205003607","1200","700","1","0","159375.20000001788","160446.40000000596","161116.10000002384"
"","EPstroop","26","163246","0.0-8.1-0.1","456","","","STROOPmain","","1","2","2","822.5150416531819","1200","700","1","1","161824","162654.40000000596","163110.60000002384"
"","EPstroop","27","165182","0.0-8.2-0.2","415","","","STROOPmain","","2","2","2","812.4236526639975","1200","700","1","1","163815.10000002384","164631.60000002384","165046.5"
"","EPstroop","28","167438","0.0-8.3-0.3","640","","","STROOPmain","","3","1","1","905.7392377813507","1200","700","1","1","165750.20000001788","166661.70000001788","167302.5"
"","EPstroop","29","169758","0.0-8.4-0.4","784","","","STROOPmain","","4","2","1","826.2001791240832","1200","700","1","0","168007.30000001192","168838.20000001788","169622.80000001192"
"","EPstroop","30","172111","0.0-8.5-0.5","616","","","STROOPmain","","5","0","0","1030.7384492397762","1200","700","0","1","170327","171358.30000001192","171974.10000002384"
"","EPstroop","31","174302","0.0-8.6-0.6","424","","","STROOPmain","","6","1","1","1060.8656118834301","1200","700","1","1","172679.60000002384","173741.70000001788","174166.5"
"","EPstroop","32","176686","0.0-8.7-0.7","760","","","STROOPmain","","7","0","0","914.317404561601","1200","700","1","1","174871","175790.60000002384","176550.60000002384"
"","EPstroop","33","178734","0.0-8.8-0.8","567","","","STROOPmain","","8","0","2","767.7662023365797","1200","700","1","0","177255.20000001788","178031.10000002384","178597.80000001192"
"","EPstroop","34","180527","0.0-8.9-0.9","305","","","STROOPmain","","9","1","1","775.0787054156941","1200","700","1","1","179302.90000000596","180085.90000000596","180390.70000001788"
"","EPstroop","35","182654","0.0-8.10-0.10","376","","","STROOPmain","","10","0","0","1040.0946980306956","1200","700","1","1","181096","182141.70000001788","182518.40000000596"
"","EPstroop","36","184831","0.0-8.11-0.11","535","","","STROOPmain","","11","0","0","928.5063973831276","1200","700","1","1","183222.80000001192","184158.60000002384","184693.30000001192"
"","EPstroop","37","187183","0.0-8.12-0.12","574","","","STROOPmain","","12","1","2","1063.0628890907185","1200","700","0","0","185399.5","186471.10000002384","187045.20000001788"
"","EPstroop","38","189534","0.0-8.13-0.13","760","","","STROOPmain","","13","0","0","885.7855820136269","1200","700","1","1","187751","188637.90000000596","189398.5"
"","EPstroop","39","191518","0.0-8.14-0.14","480","","","STROOPmain","","14","0","2","796.8862356114112","1200","700","1","0","190103.40000000596","190902.70000001788","191382.80000001192"
"","EPstroop","40","193919","0.0-8.15-0.15","688","","","STROOPmain","","15","0","0","1001.6450185178944","1200","700","1","1","192086.80000001192","193094.5","193782.30000001192"
"","EPstroop","41","196142","0.0-8.16-0.16","632","","","STROOPmain","","16","1","0","885.6472749003813","1200","700","0","0","194487.70000001788","195373.90000000596","196006"
"","EPstroop","42","198366","0.0-8.17-0.17","616","","","STROOPmain","","17","0","0","898.400391850937","1200","700","1","1","196711.30000001192","197613.70000001788","198230.20000001788"
"","EPstroop","43","200863","0.0-8.18-0.18","711","","","STROOPmain","","18","0","1","1073.8867713837158","1200","700","0","0","198934.60000002384","200014.5","200725.70000001788"
"","EPstroop","44","203087","0.0-8.19-0.19","592","","","STROOPmain","","19","2","1","918.8779480208171","1200","700","1","0","201431.40000000596","202358.10000002384","202950.60000002384"
"","EPstroop","45","205190","0.0-8.20-0.20","294","","","STROOPmain","","20","1","1","1093.7090961123522","1200","700","1","1","203655.5","204750.80000001192","205045.20000001788"
"","EPstroop","46","207214","0.0-8.21-0.21","319","","","STROOPmain","","21","1","1","996.0862060217621","1200","700","1","1","205759.10000002384","206758.70000001788","207078.30000001192"
"","EPstroop","47","209743","0.0-8.22-0.22","928","","","STROOPmain","","22","1","0","888.8320085342026","1200","700","1","0","207783","208677.80000001192","209606.30000001192"
"","EPstroop","48","211838","0.0-8.23-0.23","679","","","STROOPmain","","23","1","1","705.6152712994749","1200","700","1","1","210311.20000001788","211022.20000001788","211701.80000001192"
"","EPstroop","49","213726","0.0-8.24-0.24","344","","","STROOPmain","","24","0","1","836.2859808804161","1200","700","1","0","212406.5","213245.70000001788","213589.60000002384"
"","EPstroop","50","215695","0.0-8.25-0.25","376","","","STROOPmain","","25","1","1","879.6245646346615","1200","700","1","1","214294.90000000596","215182.40000000596","215558.30000001192"
"","EPstroop","51","217678","0.0-8.26-0.26","392","","","STROOPmain","","26","1","1","868.6396744344803","1200","700","1","1","216263","217133.80000001192","217526.20000001788"
"","EPstroop","52","220064","0.0-8.27-0.27","624","","","STROOPmain","","27","2","2","1054.8365104945153","1200","700","1","1","218246.10000002384","219302.30000001192","219926.40000000596"
"","EPstroop","53","222062","0.0-8.28-0.28","520","","","STROOPmain","","28","0","0","772.5550008200354","1200","700","1","1","220631.20000001788","221405.70000001788","221926.30000001192"
"","EPstroop","54","224287","0.0-8.29-0.29","585","","","STROOPmain","","29","2","2","931.4550566188664","1200","700","1","1","222630.80000001192","223565.70000001788","224150.5"
"","EPstroop","55","227071","0.0-8.30-0.30","1136","","","STROOPmain","","30","2","0","939.265210076413","1200","700","0","0","224854.70000001788","225798.5","226934.10000002384"
"","EPstroop","56","229119","0.0-8.31-0.31","616","","","STROOPmain","","31","0","0","721.6521741559243","1200","700","1","1","227639.10000002384","228366.5","228982.30000001192"
"","EPstroop","57","231104","0.0-8.32-0.32","471","","","STROOPmain","","32","0","0","799.8409113147699","1200","700","1","1","229687.70000001788","230494.5","230965.90000000596"
"","EPstroop","58","233295","0.0-8.33-0.33","536","","","STROOPmain","","33","1","1","943.9384307947622","1200","700","1","1","231672.20000001788","232622.20000001788","233158.30000001192"
"","EPstroop","59","235615","0.0-8.34-0.34","664","","","STROOPmain","","34","0","0","946.0248109999773","1200","700","1","1","233863.30000001192","234814.5","235478.60000002384"
"","EPstroop","60","237727","0.0-8.35-0.35","447","","","STROOPmain","","35","0","0","953.9997882946209","1200","700","1","1","236183.40000000596","237143.20000001788","237590.30000001192"
"","EPstroop","61","239551","0.0-8.36-0.36","360","","","STROOPmain","","36","0","0","752.4918612818419","1200","700","1","1","238295","239054.20000001788","239414"
"","EPstroop","62","241759","0.0-8.37-0.37","511","","","STROOPmain","","37","1","2","986.6204359515523","1200","700","1","0","240119.60000002384","241111","241622.30000001192"
"","EPstroop","63","243807","0.0-8.38-0.38","560","","","STROOPmain","","38","0","0","780.89812494705","1200","700","1","1","242326.90000000596","243110.20000001788","243670.30000001192"
"","EPstroop","64","245855","0.0-8.39-0.39","408","","","STROOPmain","","39","2","2","929.5023482819184","1200","700","1","1","244375.60000002384","245310.80000001192","245718.60000002384"
"","EPstroop","65","247822","0.0-8.40-0.40","424","","","STROOPmain","","40","2","2","836.436603676993","1200","700","0","1","246422.60000002384","247262.30000001192","247686.20000001788"
"","EPstroop","66","249727","0.0-8.41-0.41","447","","","STROOPmain","","41","1","2","746.5241835383742","1200","700","1","0","248390.80000001192","249142","249589.40000000596"
"","EPstroop","67","251759","0.0-8.42-0.42","320","","","STROOPmain","","42","0","2","1002.7152797525389","1200","700","1","0","250295.5","251301.80000001192","251622.20000001788"
"","EPstroop","68","253919","0.0-8.43-0.43","608","","","STROOPmain","","43","2","1","845.2344656987511","1200","700","1","0","252327.30000001192","253174","253782.40000000596"
"","EPstroop","69","256159","0.0-8.44-0.44","585","","","STROOPmain","","44","2","2","946.7899323890113","1200","700","1","1","254486.40000000596","255437.70000001788","256022.5"
"","EPstroop","70","258320","0.0-8.45-0.45","600","","","STROOPmain","","45","1","1","853.1988447629342","1200","700","1","1","256726.40000000596","257581.80000001192","258182.20000001788"
"","EPstroop","71","260191","0.0-8.46-0.46","456","","","STROOPmain","","46","1","1","705.4532521426249","1200","700","1","1","258888.10000002384","259598.5","260054.30000001192"
"","EPstroop","72","262831","0.0-8.47-0.47","-1","","","STROOPmain","","47","0","0","720.0374330653711","1200","700","-1","1","260758.70000001788","261486.10000002384","262694.40000000596"
"","EPstroop","73","265671","0.0-8.48-0.48","-1","","","STROOPmain","","48","1","1","919.9755913398403","1200","700","-1","1","263399.2000000179","264326.40000000596","265533.60000002384"
"","EPstroop","74","268415","0.0-8.49-0.49","-1","","","STROOPmain","","49","2","2","823.2293514123921","1200","700","-1","1","266238.90000000596","267070.5","268277.60000002384"
"","EPstroop","75","270751","0.0-8.50-0.50","561","","","STROOPmain","","50","2","2","1049.403434534212","1200","700","0","1","268983.3000000119","270053.2000000179","270614.2000000179"
"","EPstroop","76","273264","0.0-8.51-0.51","775","","","STROOPmain","","51","2","2","1025.3228786336242","1200","700","1","1","271319.8000000119","272351.2000000179","273126.2000000179"
"","EPstroop","77","275509","0.0-8.52-0.52","486","","","STROOPmain","","52","2","2","1041.9291417107415","1200","700","1","1","273832.40000000596","274879","275365.60000002384"
"","EPstroop","78","277856","0.0-8.53-0.53","575","","","STROOPmain","","53","2","1","1061.6891826695328","1200","700","1","0","276075.8000000119","277142.5","277717.3000000119"
"","EPstroop","79","279985","0.0-8.54-0.54","608","","","STROOPmain","","54","0","2","811.9992960269099","1200","700","1","0","278422.90000000596","279237.8000000119","279846.3000000119"
"","EPstroop","80","282096","0.0-8.55-0.55","617","","","STROOPmain","","55","2","0","789.5820903618197","1200","700","1","0","280551.5","281341.7000000179","281958.60000002384"
"","EPstroop","81","284337","0.0-8.56-0.56","599","","","STROOPmain","","56","1","1","933.8448962791897","1200","700","1","1","282662.8000000119","283598.3000000119","284197.90000000596"
"","EPstroop","82","286928","0.0-8.57-0.57","808","","","STROOPmain","","57","1","0","1075.8969479114228","1200","700","0","0","284903.7000000179","285982.3000000119","286790.10000002384"
"","EPstroop","83","288672","0.0-8.58-0.58","112","","","STROOPmain","","58","1","0","923.1362782340684","1200","700","0","0","287495.40000000596","288422.5","288534"
"","EPstroop","84","290368","0.0-8.59-0.59","168","","","STROOPmain","","59","1","1","817.4652675995618","1200","700","0","1","289238.8000000119","290062.10000002384","290229.7000000179"
"","EPstroop","85","292561","0.0-8.60-0.60","568","","","STROOPmain","","60","1","2","913.1258155261485","1200","700","1","0","290934.8000000119","291854.2000000179","292422.40000000596"
"","EPstroop","86","294513","0.0-8.61-0.61","192","","","STROOPmain","","61","1","1","1049.7026019760065","1200","700","0","1","293127.7000000179","294181.40000000596","294373.2000000179"
"","EPstroop","87","296577","0.0-8.62-0.62","271","","","STROOPmain","","62","2","2","1078.1112027036897","1200","700","0","1","295079.5","296166.60000002384","296437.3000000119"
"","EPstroop","88","298704","0.0-8.63-0.63","559","","","STROOPmain","","63","2","2","860.8046190528249","1200","700","0","1","297143.8000000119","298006.60000002384","298565.90000000596"
"","EPstroop","89","300641","0.0-8.64-0.64","287","","","STROOPmain","","64","1","1","936.3378048571414","1200","700","0","1","299270.90000000596","300214.3000000119","300500.90000000596"
"","EPstroop","90","302960","0.0-8.65-0.65","608","","","STROOPmain","","65","2","0","1004.1241264031839","1200","700","1","0","301207.5","302214.3000000119","302822.5"
"","EPstroop","91","305936","0.0-8.66-0.66","-1","","","STROOPmain","","66","2","2","1059.554610400948","1200","700","-1","1","303527.3000000119","304590.2000000179","305797.8000000119"
"","EPstroop","92","307908","0.0-8.67-0.67","455","","","STROOPmain","","67","2","2","805.2245333624843","1200","700","1","1","306503.10000002384","307311.40000000596","307766.2000000179"
"","EPstroop","93","310272","0.0-8.68-0.68","808","","","STROOPmain","","68","0","0","850.7410416755492","1200","700","1","1","308475.2000000179","309326.3000000119","310134.2000000179"
"","EPstroop","94","312272","0.0-8.69-0.69","542","","","STROOPmain","","69","0","1","744.2154048729341","1200","700","1","0","310839","311591","312133"
"","EPstroop","95","314470","0.0-8.70-0.70","495","","","STROOPmain","","70","2","2","990.4955755685376","1200","700","1","1","312838","313831.40000000596","314326.40000000596"
"","EPstroop","96","316641","0.0-8.71-0.71","360","","","STROOPmain","","71","2","0","1099.9960590805235","1200","700","1","0","315036.40000000596","316141.90000000596","316502"
"true","fullscreen","97","317648","0.0-9.0","","","","","","","","","","","","","","","",""
"","external-html","98","324600","0.0-10.0","6679","","./STROOP_html/endscreen.html","endscreen","","","","","","","","","","","",""
