"success","trial_type","trial_index","time_elapsed","internal_node_id","rt","keypressed","url","trial_tag","value","tnum","string","color","fixdur","respdelay","feedbackdur","correct","congruent","startTime","displayTime","feedbackTime"
"true","fullscreen","0","57823","0.0-0.0","","","","","","","","","","","","","","","",""
"","external-html","1","81687","0.0-1.0-0.0","23785","-1","STROOP_html/welcome1.html","instructions","","","","","","","","","","","",""
"","external-html","2","89603","0.0-2.0-0.0","7812","-1","STROOP_html/welcome2.html","instructions","","","","","","","","","","","",""
"","call-function","3","89716","0.0-3.0","","","","","111.90000000037253","","","","","","","","","","",""
"","EPstroop","4","92361","0.0-4.0-0.0","-1","","","STROOPtrain","","0","2","0","714.3277585957187","1200","700","-1","0","90344.79999999981","91066.79999999981","92274.20000000019"
"","EPstroop","5","94951","0.0-4.1-0.1","988","","","STROOPtrain","","0","1","0","883.2893994277763","1200","700","1","0","92990.70000000019","93882.59999999963","94871.39999999944"
"","EPstroop","6","97062","0.0-4.2-0.2","681","","","STROOPtrain","","0","2","2","709.5299948909471","1200","700","1","1","95580","96301.70000000019","96982.89999999944"
"","EPstroop","7","99334","0.0-4.3-0.3","668","","","STROOPtrain","","0","1","1","887.8465673767772","1200","700","1","1","97691.20000000019","98586.5","99254.70000000019"
"","EPstroop","8","101814","0.0-4.4-0.4","771","","","STROOPtrain","","0","0","0","994.6719055461256","1200","700","1","1","99962.70000000019","100963.09999999963","101734.5"
"","EPstroop","9","104246","0.0-4.5-0.5","924","","","STROOPtrain","","0","0","1","798.7355700922878","1200","700","1","0","102442.39999999944","103241.79999999981","104166.09999999963"
"","EPstroop","10","106950","0.0-4.6-0.6","901","","","STROOPtrain","","0","0","0","1092.1936736723108","1200","700","1","1","104874.09999999963","105970.20000000019","106871.09999999963"
"","EPstroop","11","109590","0.0-4.7-0.7","881","","","STROOPtrain","","0","1","2","1036.7428816289275","1200","700","0","0","107579.20000000019","108629.5","109510.79999999981"
"","EPstroop","12","111751","0.0-4.8-0.8","636","","","STROOPtrain","","0","2","2","807.0490553975402","1200","700","1","1","110219.59999999963","111034.09999999963","111670.39999999944"
"","EPstroop","13","113959","0.0-4.9-0.9","417","","","STROOPtrain","","0","2","2","1066.2054287955912","1200","700","1","1","112379.70000000019","113462.20000000019","113879"
"","EPstroop","14","116297","0.0-4.10-0.10","637","","","STROOPtrain","","0","0","0","985.5552241417037","1200","700","1","1","114587.59999999963","115578.09999999963","116214.79999999981"
"","EPstroop","15","118392","0.0-4.11-0.11","457","","","STROOPtrain","","0","1","1","910.8955313273073","1200","700","1","1","116924","117854.70000000019","118311.29999999981"
"","EPstroop","16","120376","0.0-4.12-0.12","540","","","STROOPtrain","","0","2","2","728.819853493411","1200","700","1","1","119019.59999999963","119754.39999999944","120294.70000000019"
"","EPstroop","17","122776","0.0-4.13-0.13","717","","","STROOPtrain","","0","1","1","970.2571020449845","1200","700","1","1","121002.70000000019","121977.79999999981","122694.70000000019"
"","EPstroop","18","125528","0.0-4.14-0.14","-1","","","STROOPtrain","","0","2","1","834.0286693071292","1200","700","-1","0","123403.59999999963","124242.20000000019","125449.79999999981"
"","EPstroop","19","128408","0.0-4.15-0.15","-1","","","STROOPtrain","","0","0","2","962.6920851287011","1200","700","-1","0","126155.29999999981","127121.89999999944","128330.09999999963"
"","EPstroop","20","130648","0.0-4.16-0.16","653","","","STROOPtrain","","0","1","1","875.4792954006934","1200","700","1","1","129035.20000000019","129914.09999999963","130566.89999999944"
"","EPstroop","21","132856","0.0-4.17-0.17","677","","","STROOPtrain","","0","0","0","816.1531720362138","1200","700","1","1","131275.39999999944","132098","132774.7999999998"
"","external-html","22","136708","0.0-5.0-0.0","3784","-1","STROOP_html/welcome3.html","instructions","","","","","","","","","","","",""
"","call-function","23","136773","0.0-6.0","","","","","63","","","","","","","","","","",""
"","call-function","24","136835","0.0-7.0","","","","","61.69999999925494","","","","","","","","","","",""
"","EPstroop","25","139401","0.0-8.0-0.0","1109","","","STROOPmain","","0","2","2","723.9246467766955","1200","700","1","1","137464.5","138209.2999999998","139320.39999999944"
"","EPstroop","26","141752","0.0-8.1-0.1","772","","","STROOPmain","","1","0","1","868.7189189510366","1200","700","1","0","140028.39999999944","140898.2000000002","141671.09999999963"
"","EPstroop","27","144312","0.0-8.2-0.2","1013","","","STROOPmain","","2","1","0","829.7400101535916","1200","700","1","0","142379.09999999963","143218.09999999963","144231.09999999963"
"","EPstroop","28","146536","0.0-8.3-0.3","572","","","STROOPmain","","3","0","0","941.7047802842918","1200","700","1","1","144939.2000000002","145882.2999999998","146455.2000000002"
"","EPstroop","29","148808","0.0-8.4-0.4","813","","","STROOPmain","","4","0","1","749.5188158072735","1200","700","1","0","147163.59999999963","147914","148727.2999999998"
"","EPstroop","30","151048","0.0-8.5-0.5","659","","","STROOPmain","","5","2","2","868.9423995311009","1200","700","1","1","149434.7999999998","150307","150966.2999999998"
"","EPstroop","31","153543","0.0-8.6-0.6","937","","","STROOPmain","","6","2","0","843.2827070572952","1200","700","1","0","151674.59999999963","152525.2999999998","153462.09999999963"
"","EPstroop","32","156056","0.0-8.7-0.7","925","","","STROOPmain","","7","0","0","874.2748901523469","1200","700","1","1","154170.39999999944","155050.2000000002","155975.09999999963"
"","EPstroop","33","158392","0.0-8.8-0.8","844","","","STROOPmain","","8","2","1","781.1522975255881","1200","700","1","0","156683.89999999944","157466.5","158311"
"","EPstroop","34","160795","0.0-8.9-0.9","596","","","STROOPmain","","9","0","0","1093.7578023234146","1200","700","1","1","159019.59999999963","160114.5","160711.09999999963"
"","EPstroop","35","162872","0.0-8.10-0.10","445","","","STROOPmain","","10","0","0","921.6618661214227","1200","700","1","1","161422.7999999998","162345.7999999998","162791.39999999944"
"","EPstroop","36","165177","0.0-8.11-0.11","741","","","STROOPmain","","11","1","1","852.7840644268939","1200","700","1","1","163499.59999999963","164354","165095"
"","EPstroop","37","167464","0.0-8.12-0.12","597","","","STROOPmain","","12","2","2","980.8893859049364","1200","700","1","1","165803.2999999998","166785.89999999944","167383"
"","EPstroop","38","169688","0.0-8.13-0.13","579","","","STROOPmain","","13","1","1","934.7241528722043","1200","700","1","1","168091.09999999963","169026.7999999998","169606.2999999998"
"","EPstroop","39","172024","0.0-8.14-0.14","893","","","STROOPmain","","14","1","2","732.9860301467378","1200","700","1","0","170315.7000000002","171049.5","171943.2000000002"
"","EPstroop","40","174567","0.0-8.15-0.15","791","","","STROOPmain","","15","0","2","1022.2669745599998","1200","700","1","0","172651.39999999944","173694.89999999944","174486.5"
"","EPstroop","41","176714","0.0-8.16-0.16","524","","","STROOPmain","","16","1","2","908.989828566609","1200","700","1","0","175195","176107.2999999998","176631.09999999963"
"","EPstroop","42","178619","0.0-8.17-0.17","437","","","STROOPmain","","17","2","2","755.0928310975481","1200","700","1","1","177339.39999999944","178098.09999999963","178535"
"","EPstroop","43","181305","0.0-8.18-0.18","1076","","","STROOPmain","","18","0","0","898.500578391061","1200","700","1","1","179244.09999999963","180146.5","181223.09999999963"
"","EPstroop","44","184122","0.0-8.19-0.19","1077","","","STROOPmain","","19","2","0","1025.9112580891301","1200","700","1","0","181930.89999999944","182961.7000000002","184039.09999999963"
"","EPstroop","45","186794","0.0-8.20-0.20","893","","","STROOPmain","","20","2","1","1070.8440814076193","1200","700","1","0","184746.7999999998","185818.39999999944","186711.2000000002"
"","EPstroop","46","189457","0.0-8.21-0.21","-1","","","STROOPmain","","21","0","0","748.0756348049804","1200","700","-1","1","187419.39999999944","188170.7000000002","189378.09999999963"
"","EPstroop","47","192042","0.0-8.22-0.22","788","","","STROOPmain","","22","2","2","1086.7884643555828","1200","700","1","1","190083.09999999963","191170.5","191959.09999999963"
"","EPstroop","48","194186","0.0-8.23-0.23","637","","","STROOPmain","","23","0","0","792.9653559235687","1200","700","1","1","192667.39999999944","193465.7999999998","194103.2000000002"
"","EPstroop","49","196505","0.0-8.24-0.24","796","","","STROOPmain","","24","2","1","808.203293700708","1200","700","1","0","194811.2999999998","195626.5","196423.09999999963"
"","EPstroop","50","198617","0.0-8.25-0.25","621","","","STROOPmain","","25","0","0","777.520862153543","1200","700","1","1","197131","197913.7999999998","198535.39999999944"
"","EPstroop","51","201017","0.0-8.26-0.26","628","","","STROOPmain","","26","2","2","1059.4334399012348","1200","700","1","1","199243.09999999963","200306.39999999944","200934.5"
"","EPstroop","52","203306","0.0-8.27-0.27","845","","","STROOPmain","","27","0","2","733.7202910335911","1200","700","1","0","201643.2000000002","202377.7999999998","203223.09999999963"
"","EPstroop","53","205594","0.0-8.28-0.28","796","","","STROOPmain","","28","1","0","777.0550137021045","1200","700","1","0","203930.7999999998","204715.09999999963","205511.2000000002"
"","EPstroop","54","208105","0.0-8.29-0.29","949","","","STROOPmain","","29","0","1","853.7228239044762","1200","700","1","0","206219.7999999998","207074.39999999944","208023.2000000002"
"","EPstroop","55","210426","0.0-8.30-0.30","845","","","STROOPmain","","30","0","0","760.1897458924849","1200","700","1","1","208730.2999999998","209498.39999999944","210343.2999999998"
"","EPstroop","56","212890","0.0-8.31-0.31","852","","","STROOPmain","","31","1","0","897.8742708037896","1200","700","1","0","211051.5","211954.5","212807.09999999963"
"","EPstroop","57","215514","0.0-8.32-0.32","828","","","STROOPmain","","32","1","1","1082.4278199856558","1200","700","1","1","213515.2999999998","214601.7999999998","215430.09999999963"
"","EPstroop","58","217834","0.0-8.33-0.33","557","","","STROOPmain","","33","2","2","1051.302119104602","1200","700","1","1","216139.2000000002","217194","217751.09999999963"
"","EPstroop","59","220138","0.0-8.34-0.34","517","","","STROOPmain","","34","2","2","1077.663512086856","1200","700","1","1","218459.2999999998","219538.09999999963","220055"
"","EPstroop","60","222820","0.0-8.35-0.35","861","","","STROOPmain","","35","1","0","1099.8550859348948","1200","700","1","0","220763.2999999998","221866.59999999963","222727.39999999944"
"","EPstroop","61","225082","0.0-8.36-0.36","660","","","STROOPmain","","36","1","1","890.6759001929115","1200","700","1","1","223445.2999999998","224337.7999999998","224998.09999999963"
"","EPstroop","62","227546","0.0-8.37-0.37","772","","","STROOPmain","","37","2","1","982.525024039716","1200","700","1","0","225706.7000000002","226689.89999999944","227462.2000000002"
"","EPstroop","63","229562","0.0-8.38-0.38","572","","","STROOPmain","","38","1","1","732.5148035014947","1200","700","1","1","228171.2999999998","228906.59999999963","229479.2000000002"
"","EPstroop","64","231929","0.0-8.39-0.39","701","","","STROOPmain","","39","0","2","951.893663623053","1200","700","1","0","230187","231146","231847.09999999963"
"","EPstroop","65","234442","0.0-8.40-0.40","852","","","STROOPmain","","40","1","1","950.0492613654935","1200","700","1","1","232555.2000000002","233507.59999999963","234359.39999999944"
"","EPstroop","66","236938","0.0-8.41-0.41","700","","","STROOPmain","","41","2","2","1081.9231967093272","1200","700","1","1","235066.7999999998","236154.59999999963","236855.09999999963"
"","EPstroop","67","239466","0.0-8.42-0.42","716","","","STROOPmain","","42","2","0","1099.6376357294666","1200","700","1","0","237562.2999999998","238666.59999999963","239382.89999999944"
"","EPstroop","68","241962","0.0-8.43-0.43","813","","","STROOPmain","","43","2","2","973.4506436920358","1200","700","1","1","240090.89999999944","241066.2999999998","241879.2999999998"
"","EPstroop","69","244411","0.0-8.44-0.44","788","","","STROOPmain","","44","0","0","944.4039726029921","1200","700","1","1","242587.2999999998","243538.7000000002","244327.09999999963"
"","EPstroop","70","246651","0.0-8.45-0.45","700","","","STROOPmain","","45","1","1","825.7487481603434","1200","700","1","1","245035.39999999944","245866.7000000002","246567.39999999944"
"","EPstroop","71","249035","0.0-8.46-0.46","588","","","STROOPmain","","46","2","2","1084.6089948374163","1200","700","1","1","247275.5","248363.2999999998","248951"
"","EPstroop","72","251355","0.0-8.47-0.47","716","","","STROOPmain","","47","1","1","891.1836080305309","1200","700","1","1","249659.5","250554","251270.2999999998"
"","EPstroop","73","253323","0.0-8.48-0.48","477","","","STROOPmain","","48","1","1","777.2753590786083","1200","700","1","1","251980.2000000002","252761.89999999944","253239"
"","EPstroop","74","255850","0.0-8.49-0.49","1052","","","STROOPmain","","49","0","1","764.2659846796892","1200","700","1","0","253947.39999999944","254714.2000000002","255766.39999999944"
"","EPstroop","75","258330","0.0-8.50-0.50","693","","","STROOPmain","","50","2","2","1074.1897566583657","1200","700","1","1","256474.2000000002","257553.7000000002","258247.2999999998"
"","EPstroop","76","260538","0.0-8.51-0.51","691","","","STROOPmain","","51","0","0","804.9923191632706","1200","700","1","1","258955","259763.5","260455.09999999963"
"","EPstroop","77","262970","0.0-8.52-0.52","884","","","STROOPmain","","52","1","2","835.1213444379912","1200","700","1","0","261163","262002.7999999998","262887.0999999996"
"","EPstroop","78","265338","0.0-8.53-0.53","716","","","STROOPmain","","53","0","0","940.9790783085535","1200","700","1","1","263594.89999999944","264538.2000000002","265254.39999999944"
"","EPstroop","79","267450","0.0-8.54-0.54","620","","","STROOPmain","","54","0","0","779.255533027103","1200","700","1","1","265963.0999999996","266746.5","267366.39999999944"
"","EPstroop","80","269675","0.0-8.55-0.55","612","","","STROOPmain","","55","1","2","902.6307659546801","1200","700","1","0","268075","268978.7000000002","269590.2999999998"
"","EPstroop","81","271850","0.0-8.56-0.56","468","","","STROOPmain","","56","1","1","995.0299292394052","1200","700","1","1","270299.2999999998","271298","271766.5"
"","EPstroop","82","274107","0.0-8.57-0.57","509","","","STROOPmain","","57","1","1","1036.5514714461683","1200","700","1","1","272475","273514.39999999944","274023.2999999998"
"","EPstroop","83","276090","0.0-8.58-0.58","541","","","STROOPmain","","58","2","2","726.1742821817813","1200","700","1","1","274731.5999999996","275466.2999999998","276007.0999999996"
"","EPstroop","84","278314","0.0-8.59-0.59","597","","","STROOPmain","","59","0","0","918.00786482852","1200","700","1","1","276715.0999999996","277634.2000000002","278231.0999999996"
"","EPstroop","85","280315","0.0-8.60-0.60","453","","","STROOPmain","","60","1","1","837.1718787679027","1200","700","1","1","278938.5999999996","279778.2999999998","280231.2999999998"
"","EPstroop","86","282666","0.0-8.61-0.61","628","","","STROOPmain","","61","2","2","1011.8023924075231","1200","700","1","1","280939.39999999944","281954.5","282583.0999999996"
"","EPstroop","87","284682","0.0-8.62-0.62","541","","","STROOPmain","","62","1","1","762.272153723037","1200","700","1","1","283291","284058","284599"
"","EPstroop","88","286842","0.0-8.63-0.63","597","","","STROOPmain","","63","0","0","849.2843985307843","1200","700","1","1","285307","286161.7000000002","286759.2000000002"
"","EPstroop","89","289563","0.0-8.64-0.64","916","","","STROOPmain","","64","2","0","1091.37270490962","1200","700","1","0","287467","288562.39999999944","289478.89999999944"
"","EPstroop","90","292474","0.0-8.65-0.65","1173","","","STROOPmain","","65","1","1","1029.7322494845682","1200","700","1","1","290187.39999999944","291218.0999999996","292391.5999999996"
"","EPstroop","91","294475","0.0-8.66-0.66","549","","","STROOPmain","","66","2","2","738.8908955487835","1200","700","1","1","293099","293841.7000000002","294391.2000000002"
"","EPstroop","92","297131","0.0-8.67-0.67","981","","","STROOPmain","","67","1","1","964.061469418106","1200","700","1","1","295099.5999999996","296066.0999999996","297047.2000000002"
"","EPstroop","93","299323","0.0-8.68-0.68","477","","","STROOPmain","","68","0","0","1004.1507934602078","1200","700","1","1","297754.7999999998","298761.7999999998","299239.0999999996"
"","EPstroop","94","301707","0.0-8.69-0.69","941","","","STROOPmain","","69","1","1","734.2149018675336","1200","700","1","1","299947.2000000002","300681.7999999998","301623.2000000002"
"","EPstroop","95","304171","0.0-8.70-0.70","796","","","STROOPmain","","70","0","2","951.0292753381615","1200","700","1","0","302331","303290.2000000002","304086.39999999944"
"","EPstroop","96","306364","0.0-8.71-0.71","628","","","STROOPmain","","71","2","2","849.2090184615201","1200","700","1","1","304795.5","305650.5999999996","306279.0999999996"
"true","fullscreen","97","307372","0.0-9.0","","","","","","","","","","","","","","","",""
"","external-html","98","314071","0.0-10.0","6477","","./STROOP_html/endscreen.html","endscreen","","","","","","","","","","","",""
