"success","trial_type","trial_index","time_elapsed","internal_node_id","rt","keypressed","url","trial_tag","value","tnum","string","color","fixdur","respdelay","feedbackdur","correct","congruent","startTime","displayTime","feedbackTime"
"true","fullscreen","0","6832","0.0-0.0","","","","","","","","","","","","","","","",""
"","external-html","1","15142","0.0-1.0-0.0","8246","-1","STROOP_html/welcome1.html","instructions","","","","","","","","","","","",""
"","external-html","2","20583","0.0-2.0-0.0","5366","-1","STROOP_html/welcome2.html","instructions","","","","","","","","","","","",""
"","call-function","3","20641","0.0-3.0","","","","","54","","","","","","","","","","",""
"","EPstroop","4","23409","0.0-4.0-0.0","1118","","","STROOPtrain","","0","0","0","926.3735598548204","1200","700","1","1","21088.099999999977","22022.20000000001","23139.900000000023"
"","EPstroop","5","25813","0.0-4.1-0.1","713","","","STROOPtrain","","0","0","2","977.376740430783","1200","700","1","0","23856.20000000001","24842.29999999999","25555.79999999999"
"","EPstroop","6","27766","0.0-4.2-0.2","468","","","STROOPtrain","","0","1","1","769.2420507234672","1200","700","1","1","26260.79999999999","27039.70000000001","27508"
"","EPstroop","7","30405","0.0-4.3-0.3","965","","","STROOPtrain","","0","1","0","955.2476522617815","1200","700","1","0","28213.599999999977","29181.599999999977","30147"
"","EPstroop","8","32820","0.0-4.4-0.4","636","","","STROOPtrain","","0","2","2","1066.1943147587208","1200","700","1","1","30852.5","31927.900000000023","32563.79999999999"
"","EPstroop","9","35574","0.0-4.5-0.5","967","","","STROOPtrain","","0","1","2","1079.9676765071224","1200","700","1","0","33268.09999999998","34349.20000000001","35315.70000000001"
"","EPstroop","10","37744","0.0-4.6-0.6","549","","","STROOPtrain","","0","0","0","904.1840843602814","1200","700","1","1","36021.70000000001","36927","37475.79999999999"
"","EPstroop","11","40312","0.0-4.7-0.7","895","","","STROOPtrain","","0","1","1","959.2615523238778","1200","700","1","1","38191.79999999999","39156.59999999998","40052.09999999998"
"","EPstroop","12","42430","0.0-4.8-0.8","502","","","STROOPtrain","","0","1","1","889.5831283339808","1200","700","1","1","40759.5","41661.59999999998","42163.70000000001"
"","EPstroop","13","44464","0.0-4.9-0.9","517","","","STROOPtrain","","0","1","1","795.2802598963801","1200","700","1","1","42877","43678.70000000001","44195.70000000001"
"","EPstroop","14","47142","0.0-4.10-0.10","880","","","STROOPtrain","","0","2","2","1090.8213018555693","1200","700","1","1","44911","46004.09999999998","46883.70000000001"
"","EPstroop","15","49490","0.0-4.11-0.11","925","","","STROOPtrain","","0","0","1","719.0570732409085","1200","700","1","0","47589.29999999999","48311.09999999998","49235.79999999999"
"","EPstroop","16","51968","0.0-4.12-0.12","655","","","STROOPtrain","","0","0","0","987.2737530218369","1200","700","1","1","49937.29999999999","50931.90000000002","51587.20000000001"
"","EPstroop","17","54690","0.0-4.13-0.13","-1","","","STROOPtrain","","0","2","1","800.4780761247707","1200","700","-1","0","52302.90000000002","53112.70000000001","54320.40000000002"
"","EPstroop","18","56740","0.0-4.14-0.14","476","","","STROOPtrain","","0","2","2","862.2404844047126","1200","700","1","1","55024.70000000001","55895.29999999999","56371.79999999999"
"","EPstroop","19","58776","0.0-4.15-0.15","531","","","STROOPtrain","","0","0","0","793.4205584819131","1200","700","1","1","57075.09999999998","57873","58403.59999999998"
"","EPstroop","20","61111","0.0-4.16-0.16","612","","","STROOPtrain","","0","2","2","1010.9135916247571","1200","700","1","1","59111.40000000002","60127.09999999998","60739.5"
"","EPstroop","21","63562","0.0-4.17-0.17","1017","","","STROOPtrain","","0","2","0","718.5836298062449","1200","700","1","0","61445.59999999998","62169.79999999999","63186.79999999999"
"","external-html","22","67350","0.0-5.0-0.0","3697","-1","STROOP_html/welcome3.html","instructions","","","","","","","","","","","",""
"","call-function","23","67410","0.0-6.0","","","","","54.79999999998836","","","","","","","","","","",""
"","call-function","24","67570","0.0-7.0","","","","","159.79999999998836","","","","","","","","","","",""
"","EPstroop","25","69783","0.0-8.0-0.0","470","","","STROOPmain","","0","1","1","1031.8548726818915","1200","700","1","1","67905.59999999998","68940.79999999999","69414.59999999998"
"","EPstroop","26","71983","0.0-8.1-0.1","657","","","STROOPmain","","1","1","2","816.440705398","1200","700","1","0","70117.70000000001","70946.79999999999","71604"
"","EPstroop","27","74037","0.0-8.2-0.2","487","","","STROOPmain","","2","0","0","859.8092065438877","1200","700","1","1","72318","73180.20000000001","73667.29999999999"
"","EPstroop","28","76138","0.0-8.3-0.3","503","","","STROOPmain","","3","2","2","881.4736055022481","1200","700","1","1","74372.5","75259.70000000001","75762.90000000002"
"","EPstroop","29","78140","0.0-8.4-0.4","473","","","STROOPmain","","4","0","0","815.7724068468691","1200","700","1","1","76472.29999999999","77291.09999999998","77764.09999999998"
"","EPstroop","30","80126","0.0-8.5-0.5","550","","","STROOPmain","","5","0","0","716.6915991477122","1200","700","1","1","78474.5","79197","79747.90000000002"
"","EPstroop","31","82395","0.0-8.6-0.6","508","","","STROOPmain","","6","2","2","1039.8104477297627","1200","700","1","1","80460.59999999998","81511.90000000002","82020"
"","EPstroop","32","84529","0.0-8.7-0.7","479","","","STROOPmain","","7","0","0","934.8023544197703","1200","700","1","1","82730.09999999998","83668.70000000001","84148.29999999999"
"","EPstroop","33","86670","0.0-8.8-0.8","440","","","STROOPmain","","8","2","2","984.6833216129537","1200","700","1","1","84863.79999999999","85851.70000000001","86292.09999999998"
"","EPstroop","34","88718","0.0-8.9-0.9","418","","","STROOPmain","","9","1","1","914.9540263974081","1200","700","1","1","87004.70000000001","87922.09999999998","88340"
"","EPstroop","35","90604","0.0-8.10-0.10","416","","","STROOPmain","","10","1","1","742.3871585169624","1200","700","1","1","89053.20000000001","89811","90227.09999999998"
"","EPstroop","36","92707","0.0-8.11-0.11","332","","","STROOPmain","","11","1","1","1064.3910638109296","1200","700","1","1","90938.59999999998","92007.5","92340"
"","EPstroop","37","94813","0.0-8.12-0.12","496","","","STROOPmain","","12","2","1","886.8347893513387","1200","700","0","0","93042.29999999999","93939.5","94436"
"","EPstroop","38","97259","0.0-8.13-0.13","738","","","STROOPmain","","13","0","2","990.2829720416291","1200","700","1","0","95147.59999999998","96146.09999999998","96883.90000000002"
"","EPstroop","39","99380","0.0-8.14-0.14","491","","","STROOPmain","","14","2","2","912.9931103469767","1200","700","1","1","97594","98520","99011.09999999998"
"","EPstroop","40","101732","0.0-8.15-0.15","544","","","STROOPmain","","15","1","0","1096.4081190793129","1200","700","1","0","99715","100819.09999999998","101363"
"","EPstroop","41","103772","0.0-8.16-0.16","454","","","STROOPmain","","16","2","2","870.2028798037529","1200","700","1","1","102067","102941.5","103395.90000000002"
"","EPstroop","42","105885","0.0-8.17-0.17","534","","","STROOPmain","","17","0","0","852.0239800377367","1200","700","1","1","104106.79999999999","104974.5","105508.20000000001"
"","EPstroop","43","108268","0.0-8.18-0.18","706","","","STROOPmain","","18","2","1","952.3453079439328","1200","700","1","0","106220.29999999999","107184.90000000002","107891.09999999998"
"","EPstroop","44","110190","0.0-8.19-0.19","482","","","STROOPmain","","19","0","0","711.2194652911234","1200","700","1","1","108602.90000000002","109328.79999999999","109810.90000000002"
"","EPstroop","45","112347","0.0-8.20-0.20","457","","","STROOPmain","","20","2","0","869.5986468602134","1200","700","0","0","110525.5","111401.70000000001","111859.09999999998"
"","EPstroop","46","114607","0.0-8.21-0.21","676","","","STROOPmain","","21","1","2","861.9776271395707","1200","700","1","0","112568.90000000002","113439.20000000001","114115.90000000002"
"","EPstroop","47","116990","0.0-8.22-0.22","638","","","STROOPmain","","22","1","0","1022.836483593627","1200","700","1","0","114829.09999999998","115862.20000000001","116500.20000000001"
"","EPstroop","48","119311","0.0-8.23-0.23","516","","","STROOPmain","","23","0","0","1087.420719632597","1200","700","1","1","117212.20000000001","118303.5","118819.90000000002"
"","EPstroop","49","121647","0.0-8.24-0.24","558","","","STROOPmain","","24","2","2","1051.5003132832762","1200","700","1","1","119532.70000000001","120596.59999999998","121154.79999999999"
"","EPstroop","50","123700","0.0-8.25-0.25","318","","","STROOPmain","","25","1","1","1021.9421314164521","1200","700","1","1","121868.40000000002","122900.70000000001","123219.09999999998"
"","EPstroop","51","125769","0.0-8.26-0.26","532","","","STROOPmain","","26","1","1","826.5519376854277","1200","700","1","1","123921.59999999998","124750.40000000002","125282.90000000002"
"","EPstroop","52","127803","0.0-8.27-0.27","384","","","STROOPmain","","27","2","2","927.5371103397283","1200","700","1","1","125990.70000000001","126931.5","127316"
"","EPstroop","53","129906","0.0-8.28-0.28","654","","","STROOPmain","","28","1","1","729.2578614957671","1200","700","1","1","128024.59999999998","128757.20000000001","129411"
"","EPstroop","54","132040","0.0-8.29-0.29","708","","","STROOPmain","","29","2","0","712.3002776826613","1200","700","1","0","130127.79999999999","130847.79999999999","131555.8"
"","EPstroop","55","134111","0.0-8.30-0.30","432","","","STROOPmain","","30","2","2","917.4246605951712","1200","700","1","1","132261.7","133186.7","133619.2"
"","EPstroop","56","136246","0.0-8.31-0.31","573","","","STROOPmain","","31","0","0","856.1181513736292","1200","700","1","1","134332.2","135190.8","135763.59999999998"
"","EPstroop","57","138412","0.0-8.32-0.32","669","","","STROOPmain","","32","0","2","785.4679998940614","1200","700","1","0","136467.5","137254.2","137923.8"
"","EPstroop","58","141121","0.0-8.33-0.33","-1","","","STROOPmain","","33","2","0","798.3270845759423","1200","700","-1","0","138634.09999999998","139433.09999999998","140639.90000000002"
"","EPstroop","59","143520","0.0-8.34-0.34","657","","","STROOPmain","","34","2","2","1026.5380309232653","1200","700","1","1","141343","142370","143026.90000000002"
"","EPstroop","60","145856","0.0-8.35-0.35","793","","","STROOPmain","","35","0","1","817.7184412726065","1200","700","1","0","143741.8","144569.59999999998","145363.09999999998"
"","EPstroop","61","148067","0.0-8.36-0.36","479","","","STROOPmain","","36","1","1","1029.6920911740406","1200","700","1","1","146077.59999999998","147108.5","147587.8"
"","EPstroop","62","150827","0.0-8.37-0.37","1076","","","STROOPmain","","37","2","1","965.1064489018484","1200","700","1","0","148288.8","149262.90000000002","150339"
"","EPstroop","63","153161","0.0-8.38-0.38","627","","","STROOPmain","","38","1","2","988.3576277930503","1200","700","1","0","151049.2","152048.3","152675.2"
"","EPstroop","64","155347","0.0-8.39-0.39","718","","","STROOPmain","","39","1","0","740.4893891524162","1200","700","1","0","153382.59999999998","154133.59999999998","154851.8"
"","EPstroop","65","157434","0.0-8.40-0.40","593","","","STROOPmain","","40","0","0","782.8588285269121","1200","700","1","1","155568.8","156355.09999999998","156947.90000000002"
"","EPstroop","66","159386","0.0-8.41-0.41","448","","","STROOPmain","","41","0","0","789.748720380997","1200","700","1","1","157656","158451.5","158899.69999999995"
"","EPstroop","67","161237","0.0-8.42-0.42","417","","","STROOPmain","","42","1","0","722.2874645525144","1200","700","1","0","159607.90000000002","160339","160756.09999999998"
"","EPstroop","68","163074","0.0-8.43-0.43","349","","","STROOPmain","","43","1","1","759.9773916076275","1200","700","1","1","161458.90000000002","162230","162579.40000000002"
"","EPstroop","69","165247","0.0-8.44-0.44","460","","","STROOPmain","","44","0","0","997.293547987377","1200","700","1","1","163295.69999999995","164295.40000000002","164755.69999999995"
"","EPstroop","70","167226","0.0-8.45-0.45","493","","","STROOPmain","","45","1","1","762.5824302754504","1200","700","1","1","165468.90000000002","166246.30000000005","166739.80000000005"
"","EPstroop","71","169395","0.0-8.46-0.46","419","","","STROOPmain","","46","0","2","1037.4053123822873","1200","700","1","0","167447.90000000002","168495.80000000005","168914.90000000002"
"","EPstroop","72","172026","0.0-8.47-0.47","715","","","STROOPmain","","47","0","0","1089.4137871946787","1200","700","1","1","169617.19999999995","170712.69999999995","171428.09999999998"
"","EPstroop","73","174116","0.0-8.48-0.48","559","","","STROOPmain","","48","0","2","822.665613942391","1200","700","1","0","172135","172963.59999999998","173523"
"","EPstroop","74","176549","0.0-8.49-0.49","843","","","STROOPmain","","49","1","1","875.9585751492083","1200","700","1","1","174225.40000000002","175112.30000000005","175955.90000000002"
"","EPstroop","75","179324","0.0-8.50-0.50","1129","","","STROOPmain","","50","2","0","929.1477525105023","1200","700","1","0","176657.90000000002","177594.5","178724.09999999998"
"","EPstroop","76","181602","0.0-8.51-0.51","817","","","STROOPmain","","51","0","1","737.7304066200454","1200","700","1","0","179432.90000000002","180177.69999999995","180995"
"","EPstroop","77","183520","0.0-8.52-0.52","400","","","STROOPmain","","52","1","1","803.0471703862204","1200","700","1","1","181711.19999999995","182515.19999999995","182915"
"","EPstroop","78","185826","0.0-8.53-0.53","533","","","STROOPmain","","53","0","0","1052.685056697578","1200","700","1","1","183628.90000000002","184687.09999999998","185219.80000000005"
"","EPstroop","79","187825","0.0-8.54-0.54","520","","","STROOPmain","","54","0","1","753.7739996207675","1200","700","1","0","185934.59999999998","186699.19999999995","187219.80000000005"
"","EPstroop","80","189710","0.0-8.55-0.55","435","","","STROOPmain","","55","1","1","723.5361003884237","1200","700","1","1","187934.19999999995","188672.19999999995","189107.80000000005"
"","EPstroop","81","191790","0.0-8.56-0.56","317","","","STROOPmain","","56","0","1","1042.012070044546","1200","700","1","0","189819.69999999995","190871.09999999998","191187.69999999995"
"","EPstroop","82","193815","0.0-8.57-0.57","501","","","STROOPmain","","57","0","0","810.2819240474548","1200","700","1","1","191899.80000000005","192718","193219"
"","EPstroop","83","196284","0.0-8.58-0.58","741","","","STROOPmain","","58","2","1","1007.7716038670255","1200","700","1","0","193923.80000000005","194941.80000000005","195683.40000000002"
"","EPstroop","84","198488","0.0-8.59-0.59","430","","","STROOPmain","","59","2","2","1055.7913008795433","1200","700","1","1","196392.90000000002","197461.19999999995","197891.80000000005"
"","EPstroop","85","200775","0.0-8.60-0.60","552","","","STROOPmain","","60","0","0","1021.1346109944948","1200","700","1","1","198597.59999999998","199627.5","200179.69999999995"
"","EPstroop","86","202823","0.0-8.61-0.61","403","","","STROOPmain","","61","2","2","936.5177976763712","1200","700","1","1","200884.59999999998","201824.09999999998","202226.90000000002"
"","EPstroop","87","205163","0.0-8.62-0.62","559","","","STROOPmain","","62","0","0","1066.5118545823207","1200","700","1","1","202932.40000000002","204004.90000000002","204564.09999999998"
"","EPstroop","88","207328","0.0-8.63-0.63","399","","","STROOPmain","","63","2","2","1037.4226887224427","1200","700","1","1","205271.80000000005","206324.59999999998","206723.80000000005"
"","EPstroop","89","209463","0.0-8.64-0.64","442","","","STROOPmain","","64","2","2","987.6462708154171","1200","700","1","1","207437","208425.09999999998","208867"
"","EPstroop","90","211449","0.0-8.65-0.65","341","","","STROOPmain","","65","2","2","933.3896627141099","1200","700","1","1","209572.5","210510.40000000002","210851.90000000002"
"","EPstroop","91","213559","0.0-8.66-0.66","390","","","STROOPmain","","66","1","1","1006.849952259761","1200","700","1","1","211557.69999999995","212572.5","212962.80000000005"
"","EPstroop","92","215503","0.0-8.67-0.67","404","","","STROOPmain","","67","2","2","819.4044167814942","1200","700","1","1","213668.90000000002","214495.19999999995","214899.40000000002"
"","EPstroop","93","217462","0.0-8.68-0.68","316","","","STROOPmain","","68","2","2","931.8412356849244","1200","700","1","1","215612.5","216551.69999999995","216867.5"
"","EPstroop","94","219784","0.0-8.69-0.69","604","","","STROOPmain","","69","1","1","1006.7971282305225","1200","700","1","1","217571.69999999995","218583.30000000005","219186.90000000002"
"","EPstroop","95","222059","0.0-8.70-0.70","730","","","STROOPmain","","70","1","2","829.0918831998856","1200","700","1","0","219893.19999999995","220729.30000000005","221459.80000000005"
"","EPstroop","96","224382","0.0-8.71-0.71","564","","","STROOPmain","","71","1","1","1042.9156448115743","1200","700","1","1","222167.69999999995","223215.69999999995","223779.80000000005"
"true","fullscreen","97","225389","0.0-9.0","","","","","","","","","","","","","","","",""
"","external-html","98","228543","0.0-10.0","2900","","./STROOP_html/endscreen.html","endscreen","","","","","","","","","","","",""
