"success","trial_type","trial_index","time_elapsed","internal_node_id","rt","keypressed","url","trial_tag","value","tnum","string","color","fixdur","respdelay","feedbackdur","correct","congruent","startTime","displayTime","feedbackTime"
"true","fullscreen","0","2108","0.0-0.0","","","","","","","","","","","","","","","",""
"","external-html","1","8595","0.0-1.0-0.0","6418","-1","STROOP_html/welcome1.html","instructions","","","","","","","","","","","",""
"","external-html","2","12116","0.0-2.0-0.0","3458","-1","STROOP_html/welcome2.html","instructions","","","","","","","","","","","",""
"","call-function","3","12199","0.0-3.0","","","","","79.29999999981374","","","","","","","","","","",""
"","EPstroop","4","15177","0.0-4.0-0.0","-1","","","STROOPtrain","","0","2","0","1033.662375140438","1200","700","-1","0","12508.399999999441","13546.700000000186","14766.299999999814"
"","EPstroop","5","18027","0.0-4.1-0.1","-1","","","STROOPtrain","","0","0","2","913.7460797121797","1200","700","-1","0","15487.399999999441","16406.299999999814","17626.200000000186"
"","EPstroop","6","20408","0.0-4.2-0.2","875","","","STROOPtrain","","0","0","1","755.8109996834289","1200","700","1","0","18337.799999999814","19116.599999999627","19993.39999999944"
"","EPstroop","7","22628","0.0-4.3-0.3","649","","","STROOPtrain","","0","0","0","834.2963215949252","1200","700","1","1","20717.099999999627","21566.39999999944","22215.39999999944"
"","EPstroop","8","24849","0.0-4.4-0.4","553","","","STROOPtrain","","0","1","1","938.1577458472348","1200","700","1","1","22937.799999999814","23886.5","24439.599999999627"
"","EPstroop","9","26849","0.0-4.5-0.5","393","","","STROOPtrain","","0","2","2","881.5868723552277","1200","700","1","1","25157.799999999814","26046.299999999814","26439.299999999814"
"","EPstroop","10","28928","0.0-4.6-0.6","612","","","STROOPtrain","","0","2","2","733.4883677207455","1200","700","1","1","27158.099999999627","27906.700000000186","28518.5"
"","EPstroop","11","31047","0.0-4.7-0.7","419","","","STROOPtrain","","0","1","1","985.4131624012937","1200","700","1","1","29237.39999999944","30226.89999999944","30646.200000000186"
"","EPstroop","12","33366","0.0-4.8-0.8","824","","","STROOPtrain","","0","0","0","772.3375584109491","1200","700","1","1","31355.799999999814","32143.700000000186","32967.299999999814"
"","EPstroop","13","35334","0.0-4.9-0.9","510","","","STROOPtrain","","0","2","1","746.6552982554838","1200","700","0","0","33674.39999999944","34426","34935.59999999963"
"","EPstroop","14","38152","0.0-4.10-0.10","1069","","","STROOPtrain","","0","1","2","1032.5272037229754","1200","700","1","0","35642.5","36682.09999999963","37751"
"","EPstroop","15","40662","0.0-4.11-0.11","724","","","STROOPtrain","","0","1","1","1073.5798429890287","1200","700","1","1","38460.700000000186","39539.09999999963","40263.39999999944"
"","EPstroop","16","42915","0.0-4.12-0.12","661","","","STROOPtrain","","0","0","0","864.5985757130659","1200","700","1","1","40971.5","41842","42503.39999999944"
"","EPstroop","17","45030","0.0-4.13-0.13","645","","","STROOPtrain","","0","2","2","755.5932830703642","1200","700","1","1","43224.299999999814","43986","44631.299999999814"
"","EPstroop","18","47814","0.0-4.14-0.14","1078","","","STROOPtrain","","0","1","0","991.9358223831903","1200","700","1","0","45339","46338.09999999963","47415.59999999963"
"","EPstroop","19","50454","0.0-4.15-0.15","926","","","STROOPtrain","","0","1","1","1004.170577956866","1200","700","1","1","48123.39999999944","49129.700000000186","50055.39999999944"
"","EPstroop","20","52742","0.0-4.16-0.16","493","","","STROOPtrain","","0","0","0","1082.385184758676","1200","700","1","1","50763.09999999963","51850.299999999814","52343.39999999944"
"","EPstroop","21","54742","0.0-4.17-0.17","373","","","STROOPtrain","","0","2","2","911.6156431829608","1200","700","1","1","53051.39999999944","53969.89999999944","54343.299999999814"
"","external-html","22","57458","0.0-5.0-0.0","2638","-1","STROOP_html/welcome3.html","instructions","","","","","","","","","","","",""
"","call-function","23","57513","0.0-6.0","","","","","52.90000000037253","","","","","","","","","","",""
"","call-function","24","57566","0.0-7.0","","","","","52.60000000055879","","","","","","","","","","",""
"","EPstroop","25","60118","0.0-8.0-0.0","749","","","STROOPmain","","0","0","0","1089.907433532564","1200","700","1","1","57874.89999999944","58970.39999999944","59724.700000000186"
"","EPstroop","26","62438","0.0-8.1-0.1","539","","","STROOPmain","","1","2","0","1069.716147050349","1200","700","0","0","60427.200000000186","61499.59999999963","62038.700000000186"
"","EPstroop","27","64582","0.0-8.2-0.2","502","","","STROOPmain","","2","2","2","933.7171317078898","1200","700","1","1","62747.09999999963","63681.700000000186","64183.700000000186"
"","EPstroop","28","66566","0.0-8.3-0.3","493","","","STROOPmain","","3","2","2","779.1640899380527","1200","700","1","1","64891.299999999814","65674.39999999944","66167.59999999963"
"","EPstroop","29","68438","0.0-8.4-0.4","365","","","STROOPmain","","4","0","0","795.3596879217946","1200","700","1","1","66874.70000000019","67674.39999999944","68040"
"","EPstroop","30","70374","0.0-8.5-0.5","413","","","STROOPmain","","5","0","0","810.0430625963523","1200","700","1","1","68747.29999999981","69561.59999999963","69974.79999999981"
"","EPstroop","31","72534","0.0-8.6-0.6","453","","","STROOPmain","","6","2","2","996.238983979292","1200","700","1","1","70683.29999999981","71682.20000000019","72135.59999999963"
"","EPstroop","32","74502","0.0-8.7-0.7","516","","","STROOPmain","","7","1","1","739.2061179367518","1200","700","1","1","72843.5","73586.09999999963","74102.39999999944"
"","EPstroop","33","76807","0.0-8.8-0.8","766","","","STROOPmain","","8","0","1","826.6392211521176","1200","700","1","0","74811.09999999963","75641.70000000019","76407.70000000019"
"","EPstroop","34","79574","0.0-8.9-0.9","1014","","","STROOPmain","","9","2","0","1038.2348806388707","1200","700","1","0","77115.89999999944","78161.70000000019","79175.89999999944"
"","EPstroop","35","81959","0.0-8.10-0.10","845","","","STROOPmain","","10","1","1","829.610960843115","1200","700","1","1","79882.39999999944","80714.59999999963","81559.70000000019"
"","EPstroop","36","84073","0.0-8.11-0.11","461","","","STROOPmain","","11","1","1","942.1133548898464","1200","700","1","1","82267.09999999963","83209.70000000019","83671.5"
"","EPstroop","37","86344","0.0-8.12-0.12","613","","","STROOPmain","","12","0","0","945.6502596321033","1200","700","1","1","84380.39999999944","85329.89999999944","85943.59999999963"
"","EPstroop","38","88393","0.0-8.13-0.13","526","","","STROOPmain","","13","1","1","810.265505562284","1200","700","1","1","86651.5","87465.79999999981","87991.59999999963"
"","EPstroop","39","90376","0.0-8.14-0.14","405","","","STROOPmain","","14","0","0","869.3141803106826","1200","700","1","1","88699.89999999944","89569.89999999944","89974.70000000019"
"","EPstroop","40","92424","0.0-8.15-0.15","580","","","STROOPmain","","15","2","2","751.2660522035346","1200","700","1","1","90683.20000000019","91442.5","92022.79999999981"
"","EPstroop","41","94407","0.0-8.16-0.16","366","","","STROOPmain","","16","2","2","891.2064654377085","1200","700","1","1","92730.70000000019","93641.20000000019","94006.79999999981"
"","EPstroop","42","96599","0.0-8.17-0.17","573","","","STROOPmain","","17","1","2","905.1038194129052","1200","700","0","0","94714.79999999981","95626.39999999944","96199.39999999944"
"","EPstroop","43","98695","0.0-8.18-0.18","453","","","STROOPmain","","18","1","1","929.3229780853255","1200","700","1","1","96907.09999999963","97842.89999999944","98295.5"
"","EPstroop","44","100904","0.0-8.19-0.19","526","","","STROOPmain","","19","2","2","969.9005802459701","1200","700","1","1","99003.09999999963","99977.89999999944","100504"
"","EPstroop","45","102936","0.0-8.20-0.20","557","","","STROOPmain","","20","1","1","761.3872754727836","1200","700","1","1","101210.79999999981","101977.79999999981","102535"
"","EPstroop","46","105624","0.0-8.21-0.21","1020","","","STROOPmain","","21","1","2","953.4048635226484","1200","700","1","0","103242.89999999944","104203.29999999981","105223.59999999963"
"","EPstroop","47","107719","0.0-8.22-0.22","461","","","STROOPmain","","22","0","0","923.2098601282705","1200","700","1","1","105931.5","106858","107319.59999999963"
"","EPstroop","48","109879","0.0-8.23-0.23","677","","","STROOPmain","","23","2","2","773.1863025820533","1200","700","1","1","108027.09999999963","108802.39999999944","109479.39999999944"
"","EPstroop","49","112535","0.0-8.24-0.24","886","","","STROOPmain","","24","0","2","1061.7148532440312","1200","700","1","0","110187.09999999963","111250","112135.89999999944"
"","EPstroop","50","114727","0.0-8.25-0.25","565","","","STROOPmain","","25","0","0","912.0442059099871","1200","700","1","1","112842.79999999981","113761.79999999981","114326.79999999981"
"","EPstroop","51","116775","0.0-8.26-0.26","405","","","STROOPmain","","26","2","2","928.5405133954034","1200","700","1","1","115034.89999999944","115970.20000000019","116375.59999999963"
"","EPstroop","52","119096","0.0-8.27-0.27","509","","","STROOPmain","","27","0","0","1098.9517172139713","1200","700","1","1","117082.5","118186.20000000019","118695.59999999963"
"","EPstroop","53","121208","0.0-8.28-0.28","374","","","STROOPmain","","28","2","2","1006.1120359179763","1200","700","1","1","119402.79999999981","120416.70000000019","120790.70000000019"
"","EPstroop","54","123303","0.0-8.29-0.29","653","","","STROOPmain","","29","0","0","729.7262757515418","1200","700","1","1","121515.29999999981","122250.29999999981","122904"
"","EPstroop","55","125678","0.0-8.30-0.30","853","","","STROOPmain","","30","0","2","802.7824672235236","1200","700","1","0","123611.20000000019","124418.29999999981","125271.59999999963"
"","EPstroop","56","127847","0.0-8.31-0.31","557","","","STROOPmain","","31","2","2","901.2345705267526","1200","700","1","1","125985.5","126890.59999999963","127447.79999999981"
"","EPstroop","57","130136","0.0-8.32-0.32","718","","","STROOPmain","","32","2","1","857.5448345115586","1200","700","1","0","128155.09999999963","129017.89999999944","129735.70000000019"
"","EPstroop","58","132888","0.0-8.33-0.33","1090","","","STROOPmain","","33","0","1","947.246526579545","1200","700","1","0","130442.70000000019","131397.89999999944","132487.59999999963"
"","EPstroop","59","134888","0.0-8.34-0.34","453","","","STROOPmain","","34","2","2","836.8075216931563","1200","700","1","1","133195.59999999963","134034.39999999944","134487.89999999944"
"","EPstroop","60","136967","0.0-8.35-0.35","517","","","STROOPmain","","35","0","0","848.2450767087593","1200","700","1","1","135195.59999999963","136050.2999999998","136567.59999999963"
"","EPstroop","61","139128","0.0-8.36-0.36","509","","","STROOPmain","","36","0","0","940.2254374352194","1200","700","1","1","137274.2000000002","138218.09999999963","138727.7000000002"
"","EPstroop","62","141176","0.0-8.37-0.37","413","","","STROOPmain","","37","0","0","923.4059470969642","1200","700","1","1","139434.59999999963","140362.59999999963","140775.59999999963"
"","EPstroop","63","143304","0.0-8.38-0.38","581","","","STROOPmain","","38","2","2","837.924018316831","1200","700","1","1","141483","142322.5","142903.5"
"","EPstroop","64","145577","0.0-8.39-0.39","572","","","STROOPmain","","39","1","1","984.4516934269209","1200","700","1","1","143610.7999999998","144602.39999999944","145174.89999999944"
"","EPstroop","65","147896","0.0-8.40-0.40","869","","","STROOPmain","","40","0","0","737.6274567777691","1200","700","1","1","145883.7000000002","146626.2999999998","147495.7000000002"
"","EPstroop","66","150457","0.0-8.41-0.41","837","","","STROOPmain","","41","1","1","1009.1772757061249","1200","700","1","1","148202.59999999963","149218.5","150055.59999999963"
"","EPstroop","67","152456","0.0-8.42-0.42","445","","","STROOPmain","","42","1","1","842.4735797378471","1200","700","1","1","150763.7000000002","151610","152055.59999999963"
"","EPstroop","68","155144","0.0-8.43-0.43","981","","","STROOPmain","","43","1","0","994.2110603169594","1200","700","1","0","152762.7999999998","153762.09999999963","154743.2000000002"
"","EPstroop","69","157288","0.0-8.44-0.44","518","","","STROOPmain","","44","2","2","912.4048412932498","1200","700","1","1","155450.5","156370","156887.89999999944"
"","EPstroop","70","159368","0.0-8.45-0.45","485","","","STROOPmain","","45","2","2","879.232086438145","1200","700","1","1","157595.5","158482.5","158967.59999999963"
"","EPstroop","71","161976","0.0-8.46-0.46","820","","","STROOPmain","","46","0","2","1077.4334916464934","1200","700","1","0","159675.5","160754.2000000002","161574.7000000002"
"","EPstroop","72","164808","0.0-8.47-0.47","1173","","","STROOPmain","","47","1","0","946.2514457542085","1200","700","1","0","162283","163234.39999999944","164407.7000000002"
"","EPstroop","73","167304","0.0-8.48-0.48","701","","","STROOPmain","","48","1","1","1077.8041179962916","1200","700","1","1","165115","166202.7999999998","166903.89999999944"
"","EPstroop","74","169400","0.0-8.49-0.49","541","","","STROOPmain","","49","0","0","846.0547538787564","1200","700","1","1","167610.89999999944","168458.09999999963","168999.5"
"","EPstroop","75","171465","0.0-8.50-0.50","574","","","STROOPmain","","50","1","1","781.3322351778826","1200","700","1","1","169707","170489.7000000002","171063.59999999963"
"","EPstroop","76","173400","0.0-8.51-0.51","453","","","STROOPmain","","51","1","1","767.9994707824146","1200","700","1","1","171771.5","172546.2999999998","172999.59999999963"
"","EPstroop","77","176120","0.0-8.52-0.52","-1","","","STROOPmain","","52","2","0","801.8037495552356","1200","700","-1","0","173706.7999999998","174513.7999999998","175722.2000000002"
"","EPstroop","78","178488","0.0-8.53-0.53","813","","","STROOPmain","","53","2","1","843.7420936971167","1200","700","1","0","176426.89999999944","177273.59999999963","178086.7999999998"
"","EPstroop","79","181048","0.0-8.54-0.54","821","","","STROOPmain","","54","0","0","1026.2067694424563","1200","700","1","1","178794.7999999998","179826.2999999998","180647.7000000002"
"","EPstroop","80","183848","0.0-8.55-0.55","1125","","","STROOPmain","","55","1","0","966.8922487565569","1200","700","1","0","181354.2999999998","182322.2999999998","183447.7000000002"
"","EPstroop","81","186488","0.0-8.56-0.56","1188","","","STROOPmain","","56","2","0","741.238755068219","1200","700","1","0","184154.7999999998","184898.39999999944","186086.5"
"","EPstroop","82","188585","0.0-8.57-0.57","628","","","STROOPmain","","57","1","1","756.816510291287","1200","700","1","1","186795","187554.39999999944","188182.7999999998"
"","EPstroop","83","190906","0.0-8.58-0.58","829","","","STROOPmain","","58","2","1","779.1314625389728","1200","700","0","0","188891.7000000002","189674","190503.39999999944"
"","EPstroop","84","193176","0.0-8.59-0.59","525","","","STROOPmain","","59","1","1","1032.9754240596621","1200","700","1","1","191212.7000000002","192250","192775.59999999963"
"","EPstroop","85","195576","0.0-8.60-0.60","685","","","STROOPmain","","60","1","2","1002.7466845670467","1200","700","1","0","193482.09999999963","194490.7000000002","195176.2000000002"
"","EPstroop","86","198120","0.0-8.61-0.61","925","","","STROOPmain","","61","0","1","909.6097743129823","1200","700","1","0","195883","196794.59999999963","197719.5"
"","EPstroop","87","200120","0.0-8.62-0.62","398","","","STROOPmain","","62","1","0","889.3804667170365","1200","700","1","0","198426.39999999944","199322","199719.59999999963"
"","EPstroop","88","202441","0.0-8.63-0.63","597","","","STROOPmain","","63","0","0","1010.5323898952995","1200","700","1","1","200426.59999999963","201441.89999999944","202039"
"","EPstroop","89","204425","0.0-8.64-0.64","549","","","STROOPmain","","64","2","2","719.7316503452004","1200","700","1","1","202747.2000000002","203473.59999999963","204022.7999999998"
"","EPstroop","90","206633","0.0-8.65-0.65","565","","","STROOPmain","","65","1","1","933.3133398199568","1200","700","1","1","204731.5","205665.7999999998","206231"
"","EPstroop","91","209034","0.0-8.66-0.66","796","","","STROOPmain","","66","1","2","887.4571766780174","1200","700","1","0","206939.7000000002","207834.2000000002","208630.7000000002"
"","EPstroop","92","211417","0.0-8.67-0.67","892","","","STROOPmain","","67","0","2","780.9761914378428","1200","700","1","0","209341","210122.2999999998","211014.7000000002"
"","EPstroop","93","214074","0.0-8.68-0.68","-1","","","STROOPmain","","68","2","1","737.8863506169831","1200","700","-1","0","211723.2000000002","212466.2999999998","213673.7000000002"
"","EPstroop","94","216825","0.0-8.69-0.69","1180","","","STROOPmain","","69","0","1","855.5387631808187","1200","700","1","0","214380.2999999998","215243.09999999963","216423.7000000002"
"","EPstroop","95","218841","0.0-8.70-0.70","573","","","STROOPmain","","70","1","1","733.4039894550222","1200","700","1","1","217130.7999999998","217866.7000000002","218439.5"
"","EPstroop","96","220936","0.0-8.71-0.71","485","","","STROOPmain","","71","2","2","897.3593251117142","1200","700","1","1","219147.59999999963","220050.5","220535.7000000002"
"true","fullscreen","97","221944","0.0-9.0","","","","","","","","","","","","","","","",""
"","external-html","98","230102","0.0-10.0","6850","","./STROOP_html/endscreen.html","endscreen","","","","","","","","","","","",""
